shape,changeType,blockNum,trialID,response,confidence,rt,experimentVersion,correctAnswer,fullShapeName,responded_correctly,analysisChangeType,subject
shape3,no_change2,0,0,same,9,9077,v001,same,shape3_no_change2,1,none,1
shape1,no_change1,0,1,same,9,3606,v001,same,shape1_no_change1,1,none,1
shape5,no_change3,0,2,same,8,2494,v001,same,shape5_no_change3,1,none,1
shape6,no_change1,0,3,same,8,4671,v001,same,shape6_no_change1,1,none,1
shape2,no_change2,0,4,same,8,2797,v001,same,shape2_no_change2,1,none,1
shape7,no_change3,0,5,same,8,3221,v001,same,shape7_no_change3,1,none,1
shape8,no_change3,0,6,same,9,5870,v001,same,shape8_no_change3,1,none,1
shape4,no_change4,0,7,same,8,2919,v001,same,shape4_no_change4,1,none,1
catch_shape,no_change5,0,8,same,9,2295,v001,same,catch_shape_no_change5,1,none,1
shape7,no_change1,1,9,same,7,5517,v001,same,shape7_no_change1,1,none,1
shape1,no_change2,1,10,same,8,2645,v001,same,shape1_no_change2,1,none,1
shape3,concave_area2,1,11,same,8,3551,v001,different,shape3_concave_area2,0,concave,1
shape2,no_change6,1,12,different,7,6142,v001,same,shape2_no_change6,0,none,1
shape5,no_change5,1,13,different,7,3935,v001,same,shape5_no_change5,0,none,1
shape4,no_change6,1,14,same,8,1830,v001,same,shape4_no_change6,1,none,1
catch_shape,no_change3,1,15,same,9,2135,v001,same,catch_shape_no_change3,1,none,1
shape6,no_change6,1,16,same,7,4655,v001,same,shape6_no_change6,1,none,1
shape8,no_change1,1,17,same,8,2278,v001,same,shape8_no_change1,1,none,1
shape1,no_change3,2,18,same,8,3334,v001,same,shape1_no_change3,1,none,1
shape2,no_change4,2,19,different,8,2478,v001,same,shape2_no_change4,0,none,1
shape3,no_change4,2,20,different,5,2022,v001,same,shape3_no_change4,0,none,1
shape7,no_change2,2,21,different,6,2118,v001,same,shape7_no_change2,0,none,1
shape4,no_change2,2,22,same,6,2998,v001,same,shape4_no_change2,1,none,1
shape6,no_change3,2,23,different,5,3463,v001,same,shape6_no_change3,0,none,1
shape5,no_change2,2,24,different,5,2272,v001,same,shape5_no_change2,0,none,1
catch_shape,no_change2,2,25,same,8,4007,v001,same,catch_shape_no_change2,1,none,1
shape8,no_change2,2,26,different,5,1366,v001,same,shape8_no_change2,0,none,1
shape2,no_change3,3,27,different,4,2710,v001,same,shape2_no_change3,0,none,1
shape4,no_change3,3,28,same,8,1526,v001,same,shape4_no_change3,1,none,1
shape7,no_change4,3,29,different,9,2214,v001,same,shape7_no_change4,0,none,1
shape5,concave_nofill_area1,3,30,different,8,1615,v001,different,shape5_concave_nofill_area1,1,concave_nofill,1
shape6,no_change2,3,31,same,8,1871,v001,same,shape6_no_change2,1,none,1
shape8,concave_area1,3,32,different,8,3814,v001,different,shape8_concave_area1,1,concave,1
catch_shape,change1,3,33,different,9,1790,v001,different,catch_shape_change1,1,none,1
shape1,no_change4,3,34,same,8,3286,v001,same,shape1_no_change4,1,none,1
shape3,no_change1,3,35,same,9,4422,v001,same,shape3_no_change1,1,none,1
catch_shape,change4,4,36,different,9,1917,v001,different,catch_shape_change4,1,none,1
shape6,concave_area1,4,37,same,8,3647,v001,different,shape6_concave_area1,0,concave,1
shape2,no_change1,4,38,different,7,1542,v001,same,shape2_no_change1,0,none,1
shape1,concave_area2,4,39,same,8,2366,v001,different,shape1_concave_area2,0,concave,1
shape5,no_change1,4,40,same,9,1717,v001,same,shape5_no_change1,1,none,1
shape3,convex_area1,4,41,same,8,2757,v001,different,shape3_convex_area1,0,convex,1
shape4,no_change1,4,42,same,9,1438,v001,same,shape4_no_change1,1,none,1
shape7,no_change6,4,43,same,7,2447,v001,same,shape7_no_change6,1,none,1
shape8,no_change5,4,44,same,9,1455,v001,same,shape8_no_change5,1,none,1
shape2,no_change5,5,45,different,8,1223,v001,same,shape2_no_change5,0,none,1
shape1,concave_area1,5,46,same,8,1910,v001,different,shape1_concave_area1,0,concave,1
shape3,no_change3,5,47,same,9,1958,v001,same,shape3_no_change3,1,none,1
shape5,convex_area1,5,48,different,3,2494,v001,different,shape5_convex_area1,1,convex,1
shape4,no_change5,5,49,same,9,1141,v001,same,shape4_no_change5,1,none,1
catch_shape,no_change1,5,50,same,9,1287,v001,same,catch_shape_no_change1,1,none,1
shape6,concave_nofill_area1,5,51,different,4,1829,v001,different,shape6_concave_nofill_area1,1,concave_nofill,1
shape8,no_change4,5,52,same,9,1335,v001,same,shape8_no_change4,1,none,1
shape7,no_change5,5,53,different,6,1293,v001,same,shape7_no_change5,0,none,1
shape3,no_change6,6,54,different,6,1222,v001,same,shape3_no_change6,0,none,1
shape4,concave_nofill_area1,6,55,different,9,1893,v001,different,shape4_concave_nofill_area1,1,concave_nofill,1
shape8,concave_nofill_area1,6,56,different,9,1207,v001,different,shape8_concave_nofill_area1,1,concave_nofill,1
shape2,convex_area1,6,57,different,8,1133,v001,different,shape2_convex_area1,1,convex,1
shape1,no_change6,6,58,same,8,2582,v001,same,shape1_no_change6,1,none,1
shape5,no_change6,6,59,different,7,1078,v001,same,shape5_no_change6,0,none,1
catch_shape,change5,6,60,different,9,877,v001,different,catch_shape_change5,1,none,1
shape6,no_change5,6,61,same,9,1093,v001,same,shape6_no_change5,1,none,1
shape7,concave_area2,6,62,different,6,2214,v001,different,shape7_concave_area2,1,concave,1
shape2,convex_area2,7,63,different,9,1207,v001,different,shape2_convex_area2,1,convex,1
shape1,concave_nofill_area2,7,64,different,7,1903,v001,different,shape1_concave_nofill_area2,1,concave_nofill,1
shape3,concave_area1,7,65,same,5,2735,v001,different,shape3_concave_area1,0,concave,1
shape6,concave_area2,7,66,different,9,973,v001,different,shape6_concave_area2,1,concave,1
shape4,concave_nofill_area2,7,67,different,9,830,v001,different,shape4_concave_nofill_area2,1,concave_nofill,1
shape8,convex_area1,7,68,different,9,845,v001,different,shape8_convex_area1,1,convex,1
shape7,convex_area1,7,69,different,9,870,v001,different,shape7_convex_area1,1,convex,1
catch_shape,no_change6,7,70,different,6,2166,v001,same,catch_shape_no_change6,0,none,1
shape5,no_change4,7,71,different,6,1296,v001,same,shape5_no_change4,0,none,1
shape1,no_change5,8,72,same,8,1470,v001,same,shape1_no_change5,1,none,1
shape2,concave_area2,8,73,different,9,887,v001,different,shape2_concave_area2,1,concave,1
shape4,convex_area1,8,74,different,9,743,v001,different,shape4_convex_area1,1,convex,1
shape3,concave_nofill_area1,8,75,different,9,1150,v001,different,shape3_concave_nofill_area1,1,concave_nofill,1
shape7,concave_nofill_area1,8,76,different,9,775,v001,different,shape7_concave_nofill_area1,1,concave_nofill,1
shape6,no_change4,8,77,different,9,767,v001,same,shape6_no_change4,0,none,1
shape5,concave_area1,8,78,different,7,2784,v001,different,shape5_concave_area1,1,concave,1
shape8,convex_area2,8,79,different,9,757,v001,different,shape8_convex_area2,1,convex,1
catch_shape,change2,8,80,different,9,655,v001,different,catch_shape_change2,1,none,1
shape2,concave_nofill_area1,9,81,different,9,1565,v001,different,shape2_concave_nofill_area1,1,concave_nofill,1
shape1,convex_area1,9,82,different,9,935,v001,different,shape1_convex_area1,1,convex,1
shape8,concave_nofill_area2,9,83,different,9,880,v001,different,shape8_concave_nofill_area2,1,concave_nofill,1
shape3,no_change5,9,84,same,8,1358,v001,same,shape3_no_change5,1,none,1
shape4,concave_area1,9,85,same,9,1686,v001,different,shape4_concave_area1,0,concave,1
shape5,convex_area2,9,86,different,9,1056,v001,different,shape5_convex_area2,1,convex,1
shape7,concave_nofill_area2,9,87,different,9,846,v001,different,shape7_concave_nofill_area2,1,concave_nofill,1
shape6,convex_area2,9,88,different,9,757,v001,different,shape6_convex_area2,1,convex,1
catch_shape,no_change4,9,89,same,9,759,v001,same,catch_shape_no_change4,1,none,1
shape3,convex_area2,10,90,different,9,695,v001,different,shape3_convex_area2,1,convex,1
shape2,concave_nofill_area2,10,91,different,9,679,v001,different,shape2_concave_nofill_area2,1,concave_nofill,1
shape4,convex_area2,10,92,different,7,1175,v001,different,shape4_convex_area2,1,convex,1
shape1,concave_nofill_area1,10,93,different,5,2031,v001,different,shape1_concave_nofill_area1,1,concave_nofill,1
shape5,concave_area2,10,94,different,9,830,v001,different,shape5_concave_area2,1,concave,1
shape7,concave_area1,10,95,different,7,1038,v001,different,shape7_concave_area1,1,concave,1
shape8,no_change6,10,96,same,9,919,v001,same,shape8_no_change6,1,none,1
shape6,convex_area1,10,97,different,9,1030,v001,different,shape6_convex_area1,1,convex,1
catch_shape,change3,10,98,different,9,743,v001,different,catch_shape_change3,1,none,1
shape3,concave_nofill_area2,11,99,different,9,903,v001,different,shape3_concave_nofill_area2,1,concave_nofill,1
shape1,convex_area2,11,100,different,9,748,v001,different,shape1_convex_area2,1,convex,1
shape2,concave_area1,11,101,different,9,846,v001,different,shape2_concave_area1,1,concave,1
shape4,concave_area2,11,102,different,9,837,v001,different,shape4_concave_area2,1,concave,1
shape5,concave_nofill_area2,11,103,different,9,863,v001,different,shape5_concave_nofill_area2,1,concave_nofill,1
shape6,concave_nofill_area2,11,104,different,9,871,v001,different,shape6_concave_nofill_area2,1,concave_nofill,1
catch_shape,change6,11,105,different,9,789,v001,different,catch_shape_change6,1,none,1
shape8,concave_area2,11,106,different,9,1183,v001,different,shape8_concave_area2,1,concave,1
shape7,convex_area2,11,107,different,9,758,v001,different,shape7_convex_area2,1,convex,1
shape4,no_change4,0,0,same,9,4284.4,v001,same,shape4_no_change4,1,none,2
catch_shape,change2,0,1,different,9,1972.6,v001,different,catch_shape_change2,1,none,2
shape2,no_change6,0,2,same,9,1529.2,v001,same,shape2_no_change6,1,none,2
shape1,no_change1,0,3,same,9,1235.9,v001,same,shape1_no_change1,1,none,2
shape3,concave_area1,0,4,same,9,1153.9,v001,different,shape3_concave_area1,0,concave,2
shape5,no_change1,0,5,same,9,1116.9,v001,same,shape5_no_change1,1,none,2
shape6,convex_area2,0,6,same,8,1818.1,v001,different,shape6_convex_area2,0,convex,2
shape8,no_change6,0,7,same,9,1005.5,v001,same,shape8_no_change6,1,none,2
shape7,no_change1,0,8,same,9,1060.4,v001,same,shape7_no_change1,1,none,2
shape2,concave_area1,1,9,same,9,1413,v001,different,shape2_concave_area1,0,concave,2
shape4,no_change1,1,10,same,9,994.1,v001,same,shape4_no_change1,1,none,2
catch_shape,no_change6,1,11,same,9,949.6,v001,same,catch_shape_no_change6,1,none,2
shape6,concave_area1,1,12,same,9,1202.4,v001,different,shape6_concave_area1,0,concave,2
shape8,no_change4,1,13,same,8,1557,v001,same,shape8_no_change4,1,none,2
shape7,convex_area2,1,14,different,7,2396.2,v001,different,shape7_convex_area2,1,convex,2
shape1,concave_area1,1,15,same,9,1611.6,v001,different,shape1_concave_area1,0,concave,2
shape3,concave_area2,1,16,different,8,1634.9,v001,different,shape3_concave_area2,1,concave,2
shape5,no_change2,1,17,same,8,1686.5,v001,same,shape5_no_change2,1,none,2
shape8,concave_area2,2,18,same,9,1669.7,v001,different,shape8_concave_area2,0,concave,2
shape7,no_change2,2,19,same,7,1169.3,v001,same,shape7_no_change2,1,none,2
shape4,no_change6,2,20,same,7,852,v001,same,shape4_no_change6,1,none,2
catch_shape,no_change1,2,21,same,8,972.5,v001,same,catch_shape_no_change1,1,none,2
shape3,concave_nofill_area2,2,22,different,8,1942.2,v001,different,shape3_concave_nofill_area2,1,concave_nofill,2
shape2,concave_nofill_area1,2,23,different,9,1789.1,v001,different,shape2_concave_nofill_area1,1,concave_nofill,2
shape1,no_change6,2,24,same,8,1677.5,v001,same,shape1_no_change6,1,none,2
shape6,no_change5,2,25,different,8,3239.5,v001,same,shape6_no_change5,0,none,2
shape5,no_change3,2,26,same,7,918,v001,same,shape5_no_change3,1,none,2
shape1,concave_area2,3,27,different,8,1493.3,v001,different,shape1_concave_area2,1,concave,2
shape5,no_change4,3,28,same,8,843.8,v001,same,shape5_no_change4,1,none,2
shape6,no_change1,3,29,different,7,996.8,v001,same,shape6_no_change1,0,none,2
shape2,convex_area1,3,30,same,7,1770.7,v001,different,shape2_convex_area1,0,convex,2
shape4,no_change2,3,31,same,7,684.5,v001,same,shape4_no_change2,1,none,2
shape7,concave_area2,3,32,same,7,3050.7,v001,different,shape7_concave_area2,0,concave,2
shape3,convex_area1,3,33,different,7,2114.8,v001,different,shape3_convex_area1,1,convex,2
shape8,convex_area1,3,34,same,8,1831.2,v001,different,shape8_convex_area1,0,convex,2
catch_shape,change4,3,35,different,9,1988.7,v001,different,catch_shape_change4,1,none,2
shape8,no_change3,4,36,same,8,1949.6,v001,same,shape8_no_change3,1,none,2
shape6,no_change4,4,37,different,7,2290,v001,same,shape6_no_change4,0,none,2
shape7,no_change3,4,38,same,8,2331.6,v001,same,shape7_no_change3,1,none,2
shape1,no_change2,4,39,different,7,30955.5,v001,same,shape1_no_change2,0,none,2
shape2,concave_nofill_area2,4,40,same,7,1762,v001,different,shape2_concave_nofill_area2,0,concave_nofill,2
catch_shape,no_change2,4,41,same,6,1940.3,v001,same,catch_shape_no_change2,1,none,2
shape5,no_change5,4,42,same,8,1508.4,v001,same,shape5_no_change5,1,none,2
shape3,no_change5,4,43,different,7,1566.8,v001,same,shape3_no_change5,0,none,2
shape4,no_change5,4,44,same,8,4232.7,v001,same,shape4_no_change5,1,none,2
shape4,concave_area2,5,45,different,8,2242,v001,different,shape4_concave_area2,1,concave,2
shape1,convex_area2,5,46,different,9,1916.2,v001,different,shape1_convex_area2,1,convex,2
shape6,no_change2,5,47,different,7,1892.6,v001,same,shape6_no_change2,0,none,2
shape8,no_change2,5,48,same,9,1167.5,v001,same,shape8_no_change2,1,none,2
shape3,no_change1,5,49,different,7,1188.3,v001,same,shape3_no_change1,0,none,2
shape2,concave_area2,5,50,different,7,1916.7,v001,different,shape2_concave_area2,1,concave,2
catch_shape,no_change3,5,51,different,2,3269,v001,same,catch_shape_no_change3,0,none,2
shape5,concave_nofill_area2,5,52,different,9,1356.1,v001,different,shape5_concave_nofill_area2,1,concave_nofill,2
shape7,convex_area1,5,53,different,9,2036.8,v001,different,shape7_convex_area1,1,convex,2
catch_shape,change6,6,54,different,9,1340.6,v001,different,catch_shape_change6,1,none,2
shape5,no_change6,6,55,same,8,1645.7,v001,same,shape5_no_change6,1,none,2
shape8,concave_nofill_area1,6,56,different,9,1692.5,v001,different,shape8_concave_nofill_area1,1,concave_nofill,2
shape4,no_change3,6,57,same,9,2184.3,v001,same,shape4_no_change3,1,none,2
shape2,no_change2,6,58,same,9,1675.4,v001,same,shape2_no_change2,1,none,2
shape7,no_change4,6,59,same,8,1268,v001,same,shape7_no_change4,1,none,2
shape3,no_change3,6,60,same,7,1632.9,v001,same,shape3_no_change3,1,none,2
shape1,convex_area1,6,61,different,6,1500.3,v001,different,shape1_convex_area1,1,convex,2
shape6,no_change3,6,62,same,6,1364.5,v001,same,shape6_no_change3,1,none,2
shape1,no_change3,7,63,same,5,2406.7,v001,same,shape1_no_change3,1,none,2
shape6,concave_area2,7,64,different,5,1535.9,v001,different,shape6_concave_area2,1,concave,2
shape2,no_change3,7,65,same,6,1922.3,v001,same,shape2_no_change3,1,none,2
shape8,no_change5,7,66,same,8,1621.1,v001,same,shape8_no_change5,1,none,2
catch_shape,change3,7,67,different,9,1525.7,v001,different,catch_shape_change3,1,none,2
shape3,no_change4,7,68,same,8,1892.1,v001,same,shape3_no_change4,1,none,2
shape7,no_change5,7,69,same,9,964.1,v001,same,shape7_no_change5,1,none,2
shape4,concave_nofill_area2,7,70,different,9,1765.1,v001,different,shape4_concave_nofill_area2,1,concave_nofill,2
shape5,concave_area1,7,71,different,8,2013.7,v001,different,shape5_concave_area1,1,concave,2
shape1,no_change4,8,72,same,9,2078.3,v001,same,shape1_no_change4,1,none,2
shape2,no_change5,8,73,same,8,1371.8,v001,same,shape2_no_change5,1,none,2
shape7,concave_nofill_area2,8,74,different,8,1493.2,v001,different,shape7_concave_nofill_area2,1,concave_nofill,2
shape5,convex_area1,8,75,different,7,1786.8,v001,different,shape5_convex_area1,1,convex,2
shape3,no_change2,8,76,different,8,1628.8,v001,same,shape3_no_change2,0,none,2
shape8,no_change1,8,77,same,8,6918.5,v001,same,shape8_no_change1,1,none,2
catch_shape,no_change5,8,78,same,9,1296.2,v001,same,catch_shape_no_change5,1,none,2
shape6,convex_area1,8,79,different,9,2499.4,v001,different,shape6_convex_area1,1,convex,2
shape4,convex_area1,8,80,same,7,3109.4,v001,different,shape4_convex_area1,0,convex,2
shape8,concave_area1,9,81,different,7,1717.7,v001,different,shape8_concave_area1,1,concave,2
shape5,concave_area2,9,82,different,6,1916.4,v001,different,shape5_concave_area2,1,concave,2
shape6,concave_nofill_area1,9,83,different,7,1717.8,v001,different,shape6_concave_nofill_area1,1,concave_nofill,2
shape1,concave_nofill_area2,9,84,different,6,1692.1,v001,different,shape1_concave_nofill_area2,1,concave_nofill,2
shape3,convex_area2,9,85,same,8,1492.6,v001,different,shape3_convex_area2,0,convex,2
shape2,no_change1,9,86,same,8,1860.9,v001,same,shape2_no_change1,1,none,2
shape4,convex_area2,9,87,different,9,1333.2,v001,different,shape4_convex_area2,1,convex,2
shape7,concave_nofill_area1,9,88,different,7,1660.1,v001,different,shape7_concave_nofill_area1,1,concave_nofill,2
catch_shape,change5,9,89,different,9,900.9,v001,different,catch_shape_change5,1,none,2
shape1,concave_nofill_area1,10,90,same,7,1245.2,v001,different,shape1_concave_nofill_area1,0,concave_nofill,2
shape4,concave_area1,10,91,different,6,2293.4,v001,different,shape4_concave_area1,1,concave,2
shape6,no_change6,10,92,different,5,3509.8,v001,same,shape6_no_change6,0,none,2
catch_shape,no_change4,10,93,same,9,2581.8,v001,same,catch_shape_no_change4,1,none,2
shape2,convex_area2,10,94,different,9,1710.6,v001,different,shape2_convex_area2,1,convex,2
shape3,no_change6,10,95,same,5,4084.8,v001,same,shape3_no_change6,1,none,2
shape8,convex_area2,10,96,different,9,1348.7,v001,different,shape8_convex_area2,1,convex,2
shape5,convex_area2,10,97,different,7,1396.6,v001,different,shape5_convex_area2,1,convex,2
shape7,no_change6,10,98,same,9,791.7,v001,same,shape7_no_change6,1,none,2
catch_shape,change1,11,99,different,9,1720.6,v001,different,catch_shape_change1,1,none,2
shape7,concave_area1,11,100,different,6,2245.8,v001,different,shape7_concave_area1,1,concave,2
shape6,concave_nofill_area2,11,101,different,6,2116.5,v001,different,shape6_concave_nofill_area2,1,concave_nofill,2
shape1,no_change5,11,102,same,9,2509.3,v001,same,shape1_no_change5,1,none,2
shape2,no_change4,11,103,same,8,1843.5,v001,same,shape2_no_change4,1,none,2
shape3,concave_nofill_area1,11,104,different,8,1628.5,v001,different,shape3_concave_nofill_area1,1,concave_nofill,2
shape4,concave_nofill_area1,11,105,different,7,1931.4,v001,different,shape4_concave_nofill_area1,1,concave_nofill,2
shape8,concave_nofill_area2,11,106,different,9,1644.4,v001,different,shape8_concave_nofill_area2,1,concave_nofill,2
shape5,concave_nofill_area1,11,107,different,9,1844.6,v001,different,shape5_concave_nofill_area1,1,concave_nofill,2
shape5,no_change5,0,0,same,8,3538.5,v001,same,shape5_no_change5,1,none,3
shape3,no_change1,0,1,same,7,2978.1,v001,same,shape3_no_change1,1,none,3
shape6,concave_area2,0,2,different,7,1778.7,v001,different,shape6_concave_area2,1,concave,3
shape8,no_change6,0,3,same,7,1737.7,v001,same,shape8_no_change6,1,none,3
shape4,no_change6,0,4,different,9,1066.9,v001,same,shape4_no_change6,0,none,3
shape7,no_change1,0,5,same,7,2529.7,v001,same,shape7_no_change1,1,none,3
shape1,convex_area2,0,6,different,9,1682.6,v001,different,shape1_convex_area2,1,convex,3
catch_shape,no_change1,0,7,same,9,1514.6,v001,same,catch_shape_no_change1,1,none,3
shape2,concave_area2,0,8,different,8,1514,v001,different,shape2_concave_area2,1,concave,3
shape3,no_change4,1,9,different,9,1533.6,v001,same,shape3_no_change4,0,none,3
shape8,convex_area2,1,10,different,9,1189.6,v001,different,shape8_convex_area2,1,convex,3
shape6,no_change1,1,11,same,6,2213.1,v001,same,shape6_no_change1,1,none,3
shape4,no_change1,1,12,different,8,748.2,v001,same,shape4_no_change1,0,none,3
catch_shape,change2,1,13,different,9,2292.5,v001,different,catch_shape_change2,1,none,3
shape1,no_change4,1,14,same,8,1613.5,v001,same,shape1_no_change4,1,none,3
shape5,no_change4,1,15,same,8,1268.4,v001,same,shape5_no_change4,1,none,3
shape2,no_change3,1,16,same,8,1099.7,v001,same,shape2_no_change3,1,none,3
shape7,no_change2,1,17,same,8,1879.1,v001,same,shape7_no_change2,1,none,3
shape4,convex_area2,2,18,same,9,1228.3,v001,different,shape4_convex_area2,0,convex,3
shape3,no_change2,2,19,same,8,1358.6,v001,same,shape3_no_change2,1,none,3
shape2,no_change2,2,20,same,8,951.6,v001,same,shape2_no_change2,1,none,3
shape1,no_change1,2,21,same,8,532,v001,same,shape1_no_change1,1,none,3
shape5,no_change3,2,22,same,8,619.3,v001,same,shape5_no_change3,1,none,3
shape7,concave_area1,2,23,same,8,900.3,v001,different,shape7_concave_area1,0,concave,3
shape6,concave_nofill_area2,2,24,different,8,733.8,v001,different,shape6_concave_nofill_area2,1,concave_nofill,3
shape8,no_change5,2,25,same,9,523.2,v001,same,shape8_no_change5,1,none,3
catch_shape,no_change2,2,26,same,9,848.3,v001,same,catch_shape_no_change2,1,none,3
shape5,concave_area2,3,27,same,8,1065.4,v001,different,shape5_concave_area2,0,concave,3
shape1,no_change2,3,28,same,9,650.1,v001,same,shape1_no_change2,1,none,3
shape8,no_change4,3,29,same,9,530.8,v001,same,shape8_no_change4,1,none,3
shape6,concave_area1,3,30,different,8,1572.6,v001,different,shape6_concave_area1,1,concave,3
shape7,no_change4,3,31,same,9,470.4,v001,same,shape7_no_change4,1,none,3
catch_shape,no_change3,3,32,same,9,524.2,v001,same,catch_shape_no_change3,1,none,3
shape4,concave_nofill_area1,3,33,different,8,1634.7,v001,different,shape4_concave_nofill_area1,1,concave_nofill,3
shape3,convex_area1,3,34,same,8,619,v001,different,shape3_convex_area1,0,convex,3
shape2,convex_area2,3,35,different,8,953.5,v001,different,shape2_convex_area2,1,convex,3
shape1,no_change5,4,36,same,9,470.1,v001,same,shape1_no_change5,1,none,3
shape4,no_change2,4,37,same,9,644.4,v001,same,shape4_no_change2,1,none,3
shape2,concave_area1,4,38,different,8,536.3,v001,different,shape2_concave_area1,1,concave,3
catch_shape,no_change5,4,39,same,8,2103.9,v001,same,catch_shape_no_change5,1,none,3
shape3,no_change5,4,40,same,8,682.4,v001,same,shape3_no_change5,1,none,3
shape6,no_change6,4,41,same,9,794.9,v001,same,shape6_no_change6,1,none,3
shape8,no_change3,4,42,same,9,705.6,v001,same,shape8_no_change3,1,none,3
shape7,no_change5,4,43,same,9,660.8,v001,same,shape7_no_change5,1,none,3
shape5,convex_area1,4,44,different,8,823,v001,different,shape5_convex_area1,1,convex,3
shape1,concave_nofill_area1,5,45,different,8,481.3,v001,different,shape1_concave_nofill_area1,1,concave_nofill,3
shape8,convex_area1,5,46,different,8,439.6,v001,different,shape8_convex_area1,1,convex,3
shape4,convex_area1,5,47,same,8,767.4,v001,different,shape4_convex_area1,0,convex,3
catch_shape,change6,5,48,different,8,536.7,v001,different,catch_shape_change6,1,none,3
shape2,no_change5,5,49,same,8,465.7,v001,same,shape2_no_change5,1,none,3
shape3,no_change6,5,50,same,8,490.6,v001,same,shape3_no_change6,1,none,3
shape5,no_change2,5,51,same,8,498,v001,same,shape5_no_change2,1,none,3
shape6,convex_area1,5,52,different,8,497.8,v001,different,shape6_convex_area1,1,convex,3
shape7,convex_area2,5,53,different,8,489.9,v001,different,shape7_convex_area2,1,convex,3
shape4,no_change5,6,54,same,8,516.5,v001,same,shape4_no_change5,1,none,3
shape6,no_change2,6,55,same,8,523.8,v001,same,shape6_no_change2,1,none,3
shape3,convex_area2,6,56,different,5,1390.7,v001,different,shape3_convex_area2,1,convex,3
shape2,no_change4,6,57,same,9,631.2,v001,same,shape2_no_change4,1,none,3
shape7,no_change3,6,58,same,9,728.5,v001,same,shape7_no_change3,1,none,3
catch_shape,change5,6,59,different,8,790.3,v001,different,catch_shape_change5,1,none,3
shape8,no_change2,6,60,same,9,617.7,v001,same,shape8_no_change2,1,none,3
shape5,no_change1,6,61,same,9,415.5,v001,same,shape5_no_change1,1,none,3
shape1,no_change6,6,62,same,9,720.6,v001,same,shape1_no_change6,1,none,3
shape4,concave_area2,7,63,different,9,735.9,v001,different,shape4_concave_area2,1,concave,3
shape3,concave_nofill_area1,7,64,same,9,559.3,v001,different,shape3_concave_nofill_area1,0,concave_nofill,3
catch_shape,change3,7,65,different,9,606.2,v001,different,catch_shape_change3,1,none,3
shape6,concave_nofill_area1,7,66,different,8,457.8,v001,different,shape6_concave_nofill_area1,1,concave_nofill,3
shape7,concave_nofill_area2,7,67,different,8,485.5,v001,different,shape7_concave_nofill_area2,1,concave_nofill,3
shape5,no_change6,7,68,same,8,1236.8,v001,same,shape5_no_change6,1,none,3
shape2,concave_nofill_area1,7,69,different,9,511.5,v001,different,shape2_concave_nofill_area1,1,concave_nofill,3
shape1,no_change3,7,70,same,8,369.3,v001,same,shape1_no_change3,1,none,3
shape8,concave_nofill_area1,7,71,different,8,673.7,v001,different,shape8_concave_nofill_area1,1,concave_nofill,3
shape1,concave_area2,8,72,different,8,530.7,v001,different,shape1_concave_area2,1,concave,3
shape7,no_change6,8,73,same,9,551.6,v001,same,shape7_no_change6,1,none,3
shape4,no_change4,8,74,same,9,558,v001,same,shape4_no_change4,1,none,3
catch_shape,change1,8,75,different,9,2618.9,v001,different,catch_shape_change1,1,none,3
shape2,no_change6,8,76,same,9,524.1,v001,same,shape2_no_change6,1,none,3
shape6,no_change3,8,77,same,9,476.1,v001,same,shape6_no_change3,1,none,3
shape3,concave_area2,8,78,same,9,483,v001,different,shape3_concave_area2,0,concave,3
shape5,concave_area1,8,79,same,9,553.1,v001,different,shape5_concave_area1,0,concave,3
shape8,concave_area1,8,80,different,9,820.4,v001,different,shape8_concave_area1,1,concave,3
shape7,convex_area1,9,81,different,9,1607.3,v001,different,shape7_convex_area1,1,convex,3
shape8,no_change1,9,82,same,9,796,v001,same,shape8_no_change1,1,none,3
catch_shape,change4,9,83,different,9,802.5,v001,different,catch_shape_change4,1,none,3
shape6,no_change4,9,84,same,9,762.3,v001,same,shape6_no_change4,1,none,3
shape1,convex_area1,9,85,different,9,674.5,v001,different,shape1_convex_area1,1,convex,3
shape2,concave_nofill_area2,9,86,different,9,529.9,v001,different,shape2_concave_nofill_area2,1,concave_nofill,3
shape3,concave_area1,9,87,same,9,1181.4,v001,different,shape3_concave_area1,0,concave,3
shape4,no_change3,9,88,same,9,701.2,v001,same,shape4_no_change3,1,none,3
shape5,convex_area2,9,89,different,9,489.9,v001,different,shape5_convex_area2,1,convex,3
shape3,no_change3,10,90,same,9,414.4,v001,same,shape3_no_change3,1,none,3
shape4,concave_nofill_area2,10,91,different,9,522.3,v001,different,shape4_concave_nofill_area2,1,concave_nofill,3
shape2,convex_area1,10,92,different,9,428.9,v001,different,shape2_convex_area1,1,convex,3
shape1,concave_area1,10,93,same,9,463.8,v001,different,shape1_concave_area1,0,concave,3
shape6,convex_area2,10,94,different,9,497,v001,different,shape6_convex_area2,1,convex,3
shape5,concave_nofill_area1,10,95,different,9,462.6,v001,different,shape5_concave_nofill_area1,1,concave_nofill,3
shape8,concave_area2,10,96,different,8,639.5,v001,different,shape8_concave_area2,1,concave,3
catch_shape,no_change4,10,97,same,9,1351.5,v001,same,catch_shape_no_change4,1,none,3
shape7,concave_area2,10,98,same,9,925.5,v001,different,shape7_concave_area2,0,concave,3
shape4,concave_area1,11,99,different,9,1133.5,v001,different,shape4_concave_area1,1,concave,3
shape7,concave_nofill_area1,11,100,different,9,592.6,v001,different,shape7_concave_nofill_area1,1,concave_nofill,3
catch_shape,no_change6,11,101,same,9,491.9,v001,same,catch_shape_no_change6,1,none,3
shape8,concave_nofill_area2,11,102,different,9,482.1,v001,different,shape8_concave_nofill_area2,1,concave_nofill,3
shape3,concave_nofill_area2,11,103,same,9,435.6,v001,different,shape3_concave_nofill_area2,0,concave_nofill,3
shape2,no_change1,11,104,same,9,457.8,v001,same,shape2_no_change1,1,none,3
shape6,no_change5,11,105,different,9,1853.2,v001,same,shape6_no_change5,0,none,3
shape1,concave_nofill_area2,11,106,different,9,565.8,v001,different,shape1_concave_nofill_area2,1,concave_nofill,3
shape5,concave_nofill_area2,11,107,different,9,598,v001,different,shape5_concave_nofill_area2,1,concave_nofill,3
shape8,no_change5,0,0,same,9,11122.6,v001,same,shape8_no_change5,1,none,4
shape7,no_change1,0,1,same,9,5297.3,v001,same,shape7_no_change1,1,none,4
shape6,concave_nofill_area1,0,2,same,9,4869,v001,different,shape6_concave_nofill_area1,0,concave_nofill,4
catch_shape,no_change4,0,3,same,9,2691.1,v001,same,catch_shape_no_change4,1,none,4
shape5,no_change5,0,4,same,9,3990.1,v001,same,shape5_no_change5,1,none,4
shape4,no_change3,0,5,same,9,2995.5,v001,same,shape4_no_change3,1,none,4
shape3,convex_area1,0,6,same,9,3511.3,v001,different,shape3_convex_area1,0,convex,4
shape2,convex_area2,0,7,same,9,2228.8,v001,different,shape2_convex_area2,0,convex,4
shape1,concave_nofill_area2,0,8,different,5,9460.6,v001,different,shape1_concave_nofill_area2,1,concave_nofill,4
shape6,no_change6,1,9,same,9,2942.3,v001,same,shape6_no_change6,1,none,4
shape1,no_change2,1,10,same,9,1773,v001,same,shape1_no_change2,1,none,4
shape3,concave_nofill_area1,1,11,same,6,2929.3,v001,different,shape3_concave_nofill_area1,0,concave_nofill,4
catch_shape,no_change3,1,12,same,9,2383.2,v001,same,catch_shape_no_change3,1,none,4
shape2,no_change1,1,13,same,5,5531.2,v001,same,shape2_no_change1,1,none,4
shape7,no_change2,1,14,same,9,2931.5,v001,same,shape7_no_change2,1,none,4
shape5,concave_nofill_area1,1,15,different,9,2804,v001,different,shape5_concave_nofill_area1,1,concave_nofill,4
shape8,concave_area1,1,16,same,4,2388.5,v001,different,shape8_concave_area1,0,concave,4
shape4,concave_area2,1,17,different,9,2261.2,v001,different,shape4_concave_area2,1,concave,4
shape2,concave_nofill_area2,2,18,same,7,3369.2,v001,different,shape2_concave_nofill_area2,0,concave_nofill,4
shape1,no_change6,2,19,same,7,1951.8,v001,same,shape1_no_change6,1,none,4
shape4,no_change1,2,20,different,9,1766.4,v001,same,shape4_no_change1,0,none,4
shape7,no_change3,2,21,same,7,1799.5,v001,same,shape7_no_change3,1,none,4
shape6,convex_area2,2,22,different,6,3393.3,v001,different,shape6_convex_area2,1,convex,4
shape3,no_change1,2,23,same,3,2599,v001,same,shape3_no_change1,1,none,4
shape5,concave_area2,2,24,different,2,3752,v001,different,shape5_concave_area2,1,concave,4
shape8,convex_area2,2,25,same,4,3783.2,v001,different,shape8_convex_area2,0,convex,4
catch_shape,no_change5,2,26,same,9,1631.3,v001,same,catch_shape_no_change5,1,none,4
shape8,no_change4,3,27,same,7,1761.4,v001,same,shape8_no_change4,1,none,4
shape7,no_change4,3,28,same,8,3323.2,v001,same,shape7_no_change4,1,none,4
shape6,no_change1,3,29,same,7,3598.4,v001,same,shape6_no_change1,1,none,4
shape5,convex_area1,3,30,different,1,4041.3,v001,different,shape5_convex_area1,1,convex,4
catch_shape,change2,3,31,different,9,1706.5,v001,different,catch_shape_change2,1,none,4
shape3,concave_area1,3,32,same,7,2331.5,v001,different,shape3_concave_area1,0,concave,4
shape1,no_change1,3,33,same,7,2291,v001,same,shape1_no_change1,1,none,4
shape2,concave_area1,3,34,different,2,2484.8,v001,different,shape2_concave_area1,1,concave,4
shape4,no_change2,3,35,same,8,2542.9,v001,same,shape4_no_change2,1,none,4
shape1,concave_nofill_area1,4,36,same,7,3450.8,v001,different,shape1_concave_nofill_area1,0,concave_nofill,4
catch_shape,change3,4,37,different,9,4507.6,v001,different,catch_shape_change3,1,none,4
shape6,concave_area1,4,38,different,2,3106.8,v001,different,shape6_concave_area1,1,concave,4
shape7,no_change5,4,39,same,8,1827.1,v001,same,shape7_no_change5,1,none,4
shape2,convex_area1,4,40,same,1,2919.2,v001,different,shape2_convex_area1,0,convex,4
shape4,no_change4,4,41,same,7,3578.3,v001,same,shape4_no_change4,1,none,4
shape3,no_change3,4,42,same,7,2574.8,v001,same,shape3_no_change3,1,none,4
shape5,no_change4,4,43,same,7,3086.5,v001,same,shape5_no_change4,1,none,4
shape8,no_change1,4,44,same,6,2029.1,v001,same,shape8_no_change1,1,none,4
shape1,no_change5,5,45,same,7,2933.9,v001,same,shape1_no_change5,1,none,4
shape7,no_change6,5,46,same,8,2578.5,v001,same,shape7_no_change6,1,none,4
catch_shape,change6,5,47,different,9,2823.2,v001,different,catch_shape_change6,1,none,4
shape2,no_change3,5,48,same,7,2002.5,v001,same,shape2_no_change3,1,none,4
shape6,concave_area2,5,49,different,2,4336.6,v001,different,shape6_concave_area2,1,concave,4
shape8,concave_nofill_area1,5,50,different,2,3926.3,v001,different,shape8_concave_nofill_area1,1,concave_nofill,4
shape5,convex_area2,5,51,different,9,1808.1,v001,different,shape5_convex_area2,1,convex,4
shape3,no_change6,5,52,same,4,4350.6,v001,same,shape3_no_change6,1,none,4
shape4,no_change6,5,53,same,6,2053.9,v001,same,shape4_no_change6,1,none,4
shape1,concave_area2,6,54,different,3,2729.7,v001,different,shape1_concave_area2,1,concave,4
shape8,concave_area2,6,55,same,1,3304.8,v001,different,shape8_concave_area2,0,concave,4
shape5,concave_area1,6,56,same,7,2191.8,v001,different,shape5_concave_area1,0,concave,4
shape7,concave_area1,6,57,different,3,4084.9,v001,different,shape7_concave_area1,1,concave,4
shape2,no_change4,6,58,same,6,3228.6,v001,same,shape2_no_change4,1,none,4
shape3,concave_nofill_area2,6,59,different,9,2007.8,v001,different,shape3_concave_nofill_area2,1,concave_nofill,4
catch_shape,change1,6,60,different,9,1254.7,v001,different,catch_shape_change1,1,none,4
shape6,no_change2,6,61,same,2,2966.9,v001,same,shape6_no_change2,1,none,4
shape4,concave_nofill_area2,6,62,different,6,2792.4,v001,different,shape4_concave_nofill_area2,1,concave_nofill,4
shape6,no_change3,7,63,same,4,1742,v001,same,shape6_no_change3,1,none,4
shape4,no_change5,7,64,same,5,2461,v001,same,shape4_no_change5,1,none,4
shape1,convex_area1,7,65,different,4,2295.3,v001,different,shape1_convex_area1,1,convex,4
shape8,no_change2,7,66,same,7,1598.6,v001,same,shape8_no_change2,1,none,4
shape3,concave_area2,7,67,different,5,1764.2,v001,different,shape3_concave_area2,1,concave,4
shape7,concave_area2,7,68,same,2,3369.1,v001,different,shape7_concave_area2,0,concave,4
shape2,concave_nofill_area1,7,69,different,9,1647.5,v001,different,shape2_concave_nofill_area1,1,concave_nofill,4
shape5,no_change6,7,70,different,1,2659.8,v001,same,shape5_no_change6,0,none,4
catch_shape,no_change2,7,71,same,9,1791.4,v001,same,catch_shape_no_change2,1,none,4
shape7,concave_nofill_area1,8,72,different,9,1957,v001,different,shape7_concave_nofill_area1,1,concave_nofill,4
shape2,no_change2,8,73,same,7,1756.7,v001,same,shape2_no_change2,1,none,4
shape1,no_change3,8,74,different,4,2910.3,v001,same,shape1_no_change3,0,none,4
shape4,convex_area1,8,75,different,2,1896.8,v001,different,shape4_convex_area1,1,convex,4
shape3,no_change4,8,76,same,6,1792,v001,same,shape3_no_change4,1,none,4
shape6,no_change4,8,77,same,2,3245.3,v001,same,shape6_no_change4,1,none,4
catch_shape,no_change1,8,78,same,9,1556.4,v001,same,catch_shape_no_change1,1,none,4
shape5,no_change3,8,79,same,7,1425.3,v001,same,shape5_no_change3,1,none,4
shape8,convex_area1,8,80,different,4,2773.9,v001,different,shape8_convex_area1,1,convex,4
shape4,concave_area1,9,81,same,6,1979.2,v001,different,shape4_concave_area1,0,concave,4
shape1,convex_area2,9,82,different,7,2848.6,v001,different,shape1_convex_area2,1,convex,4
shape6,convex_area1,9,83,different,9,1401.1,v001,different,shape6_convex_area1,1,convex,4
shape3,no_change5,9,84,same,4,2296.1,v001,same,shape3_no_change5,1,none,4
shape2,concave_area2,9,85,different,8,1815.3,v001,different,shape2_concave_area2,1,concave,4
shape8,no_change3,9,86,same,6,3027.2,v001,same,shape8_no_change3,1,none,4
catch_shape,change5,9,87,different,9,1525.1,v001,different,catch_shape_change5,1,none,4
shape5,no_change2,9,88,same,3,7930.8,v001,same,shape5_no_change2,1,none,4
shape7,convex_area1,9,89,different,7,2299.3,v001,different,shape7_convex_area1,1,convex,4
shape4,concave_nofill_area1,10,90,different,2,2129.1,v001,different,shape4_concave_nofill_area1,1,concave_nofill,4
shape3,no_change2,10,91,different,1,3199.7,v001,same,shape3_no_change2,0,none,4
shape5,no_change1,10,92,same,4,1638.5,v001,same,shape5_no_change1,1,none,4
catch_shape,no_change6,10,93,same,9,1430.3,v001,same,catch_shape_no_change6,1,none,4
shape6,no_change5,10,94,same,7,2046.5,v001,same,shape6_no_change5,1,none,4
shape2,no_change6,10,95,same,7,1598.2,v001,same,shape2_no_change6,1,none,4
shape1,no_change4,10,96,same,7,1820.8,v001,same,shape1_no_change4,1,none,4
shape8,concave_nofill_area2,10,97,different,9,1535.2,v001,different,shape8_concave_nofill_area2,1,concave_nofill,4
shape7,convex_area2,10,98,different,6,1289.8,v001,different,shape7_convex_area2,1,convex,4
shape2,no_change5,11,99,same,7,1353.3,v001,same,shape2_no_change5,1,none,4
shape7,concave_nofill_area2,11,100,different,7,2176.3,v001,different,shape7_concave_nofill_area2,1,concave_nofill,4
shape3,convex_area2,11,101,same,4,3167.1,v001,different,shape3_convex_area2,0,convex,4
shape5,concave_nofill_area2,11,102,different,3,2146.7,v001,different,shape5_concave_nofill_area2,1,concave_nofill,4
shape1,concave_area1,11,103,same,6,1467.6,v001,different,shape1_concave_area1,0,concave,4
shape6,concave_nofill_area2,11,104,different,5,2240.3,v001,different,shape6_concave_nofill_area2,1,concave_nofill,4
shape8,no_change6,11,105,same,7,1442.1,v001,same,shape8_no_change6,1,none,4
catch_shape,change4,11,106,different,9,2275.4,v001,different,catch_shape_change4,1,none,4
shape4,convex_area2,11,107,different,2,2198.1,v001,different,shape4_convex_area2,1,convex,4
shape2,no_change3,0,0,same,9,3135.1,v001,same,shape2_no_change3,1,none,5
shape4,no_change5,0,1,same,9,2457.6,v001,same,shape4_no_change5,1,none,5
shape6,no_change5,0,2,same,9,1259.6,v001,same,shape6_no_change5,1,none,5
shape7,no_change4,0,3,same,9,1483.5,v001,same,shape7_no_change4,1,none,5
catch_shape,change1,0,4,different,9,3072.7,v001,different,catch_shape_change1,1,none,5
shape8,no_change1,0,5,same,9,839.7,v001,same,shape8_no_change1,1,none,5
shape3,no_change4,0,6,same,9,903.6,v001,same,shape3_no_change4,1,none,5
shape1,no_change3,0,7,same,9,950.4,v001,same,shape1_no_change3,1,none,5
shape5,no_change2,0,8,different,4,2025.3,v001,same,shape5_no_change2,0,none,5
shape5,no_change1,1,9,same,9,1088.1,v001,same,shape5_no_change1,1,none,5
shape6,concave_area1,1,10,different,4,1512.9,v001,different,shape6_concave_area1,1,concave,5
shape7,no_change3,1,11,same,9,654.2,v001,same,shape7_no_change3,1,none,5
catch_shape,change6,1,12,different,9,1138.7,v001,different,catch_shape_change6,1,none,5
shape4,convex_area1,1,13,same,4,1128.7,v001,different,shape4_convex_area1,0,convex,5
shape3,concave_nofill_area1,1,14,same,8,1018.8,v001,different,shape3_concave_nofill_area1,0,concave_nofill,5
shape2,no_change2,1,15,same,7,998.3,v001,same,shape2_no_change2,1,none,5
shape8,no_change2,1,16,same,9,655.2,v001,same,shape8_no_change2,1,none,5
shape1,no_change1,1,17,same,9,1105,v001,same,shape1_no_change1,1,none,5
shape5,no_change4,2,18,same,9,804.9,v001,same,shape5_no_change4,1,none,5
catch_shape,no_change4,2,19,same,9,651.1,v001,same,catch_shape_no_change4,1,none,5
shape1,no_change4,2,20,same,9,683.2,v001,same,shape1_no_change4,1,none,5
shape7,no_change1,2,21,same,9,719.7,v001,same,shape7_no_change1,1,none,5
shape8,concave_nofill_area2,2,22,different,9,1419.8,v001,different,shape8_concave_nofill_area2,1,concave_nofill,5
shape6,convex_area1,2,23,different,8,900,v001,different,shape6_convex_area1,1,convex,5
shape4,concave_area1,2,24,different,9,959.1,v001,different,shape4_concave_area1,1,concave,5
shape2,no_change6,2,25,same,8,1066.2,v001,same,shape2_no_change6,1,none,5
shape3,no_change3,2,26,same,4,1197.3,v001,same,shape3_no_change3,1,none,5
shape8,convex_area2,3,27,different,9,1036.2,v001,different,shape8_convex_area2,1,convex,5
shape3,concave_area1,3,28,different,4,1447.7,v001,different,shape3_concave_area1,1,concave,5
shape4,no_change4,3,29,same,9,559.3,v001,same,shape4_no_change4,1,none,5
shape5,concave_area1,3,30,different,5,684.8,v001,different,shape5_concave_area1,1,concave,5
shape2,no_change4,3,31,same,7,658.8,v001,same,shape2_no_change4,1,none,5
shape1,convex_area2,3,32,different,8,944.3,v001,different,shape1_convex_area2,1,convex,5
shape7,convex_area1,3,33,same,5,732.4,v001,different,shape7_convex_area1,0,convex,5
shape6,no_change1,3,34,same,8,10003.3,v001,same,shape6_no_change1,1,none,5
catch_shape,no_change6,3,35,different,4,907.9,v001,same,catch_shape_no_change6,0,none,5
shape8,no_change3,4,36,same,9,552.3,v001,same,shape8_no_change3,1,none,5
shape1,concave_area2,4,37,different,4,1199.6,v001,different,shape1_concave_area2,1,concave,5
shape4,concave_area2,4,38,different,9,575.9,v001,different,shape4_concave_area2,1,concave,5
shape5,no_change6,4,39,same,9,599.3,v001,same,shape5_no_change6,1,none,5
catch_shape,no_change1,4,40,same,9,538.9,v001,same,catch_shape_no_change1,1,none,5
shape2,concave_nofill_area1,4,41,different,9,618.8,v001,different,shape2_concave_nofill_area1,1,concave_nofill,5
shape3,no_change2,4,42,same,9,632.9,v001,same,shape3_no_change2,1,none,5
shape6,no_change4,4,43,same,9,1658.6,v001,same,shape6_no_change4,1,none,5
shape7,no_change2,4,44,same,9,4257.4,v001,same,shape7_no_change2,1,none,5
shape7,concave_nofill_area2,5,45,same,6,17085.1,v001,different,shape7_concave_nofill_area2,0,concave_nofill,5
shape4,no_change6,5,46,same,7,5087.6,v001,same,shape4_no_change6,1,none,5
shape6,no_change2,5,47,same,9,766.2,v001,same,shape6_no_change2,1,none,5
shape5,concave_nofill_area1,5,48,different,4,567.5,v001,different,shape5_concave_nofill_area1,1,concave_nofill,5
shape3,concave_area2,5,49,same,6,737.9,v001,different,shape3_concave_area2,0,concave,5
shape2,convex_area1,5,50,different,4,11005.5,v001,different,shape2_convex_area1,1,convex,5
shape1,concave_nofill_area1,5,51,different,7,935.3,v001,different,shape1_concave_nofill_area1,1,concave_nofill,5
shape8,concave_area2,5,52,different,7,1046.4,v001,different,shape8_concave_area2,1,concave,5
catch_shape,change4,5,53,different,9,955.6,v001,different,catch_shape_change4,1,none,5
shape8,no_change5,6,54,same,8,772.2,v001,same,shape8_no_change5,1,none,5
shape1,concave_nofill_area2,6,55,same,6,1015.9,v001,different,shape1_concave_nofill_area2,0,concave_nofill,5
shape2,no_change1,6,56,same,4,876.9,v001,same,shape2_no_change1,1,none,5
shape4,no_change3,6,57,different,4,535.9,v001,same,shape4_no_change3,0,none,5
shape3,no_change1,6,58,same,9,807.3,v001,same,shape3_no_change1,1,none,5
shape6,no_change6,6,59,same,9,539.2,v001,same,shape6_no_change6,1,none,5
shape5,convex_area1,6,60,different,9,856.8,v001,different,shape5_convex_area1,1,convex,5
shape7,concave_area2,6,61,same,6,666,v001,different,shape7_concave_area2,0,concave,5
catch_shape,change2,6,62,different,9,616.2,v001,different,catch_shape_change2,1,none,5
catch_shape,change5,7,63,different,9,569,v001,different,catch_shape_change5,1,none,5
shape4,concave_nofill_area1,7,64,same,9,1398.3,v001,different,shape4_concave_nofill_area1,0,concave_nofill,5
shape7,concave_nofill_area1,7,65,same,9,649.3,v001,different,shape7_concave_nofill_area1,0,concave_nofill,5
shape3,concave_nofill_area2,7,66,same,9,905.5,v001,different,shape3_concave_nofill_area2,0,concave_nofill,5
shape2,concave_area1,7,67,same,7,18059.6,v001,different,shape2_concave_area1,0,concave,5
shape8,no_change4,7,68,same,9,779.2,v001,same,shape8_no_change4,1,none,5
shape1,concave_area1,7,69,different,4,1037.2,v001,different,shape1_concave_area1,1,concave,5
shape5,no_change5,7,70,same,9,617,v001,same,shape5_no_change5,1,none,5
shape6,concave_nofill_area2,7,71,same,7,3765.2,v001,different,shape6_concave_nofill_area2,0,concave_nofill,5
shape7,no_change6,8,72,same,9,527.5,v001,same,shape7_no_change6,1,none,5
shape1,no_change6,8,73,different,4,1906.8,v001,same,shape1_no_change6,0,none,5
shape5,convex_area2,8,74,different,9,449.1,v001,different,shape5_convex_area2,1,convex,5
shape2,convex_area2,8,75,different,7,354.8,v001,different,shape2_convex_area2,1,convex,5
shape6,no_change3,8,76,different,5,215.8,v001,same,shape6_no_change3,0,none,5
shape3,convex_area2,8,77,different,5,242.6,v001,different,shape3_convex_area2,1,convex,5
shape8,no_change6,8,78,different,5,257.1,v001,same,shape8_no_change6,0,none,5
shape4,concave_nofill_area2,8,79,different,5,430.3,v001,different,shape4_concave_nofill_area2,1,concave_nofill,5
catch_shape,no_change5,8,80,same,9,1072.6,v001,same,catch_shape_no_change5,1,none,5
shape2,concave_nofill_area2,9,81,same,9,877.9,v001,different,shape2_concave_nofill_area2,0,concave_nofill,5
shape5,concave_area2,9,82,same,9,333.4,v001,different,shape5_concave_area2,0,concave,5
catch_shape,no_change2,9,83,same,7,2555.5,v001,same,catch_shape_no_change2,1,none,5
shape6,convex_area2,9,84,different,4,825.8,v001,different,shape6_convex_area2,1,convex,5
shape4,convex_area2,9,85,different,4,1435.7,v001,different,shape4_convex_area2,1,convex,5
shape7,no_change5,9,86,different,3,1161.6,v001,same,shape7_no_change5,0,none,5
shape1,no_change2,9,87,same,7,581.6,v001,same,shape1_no_change2,1,none,5
shape8,concave_area1,9,88,same,7,596,v001,different,shape8_concave_area1,0,concave,5
shape3,no_change6,9,89,same,6,734.5,v001,same,shape3_no_change6,1,none,5
shape1,convex_area1,10,90,different,1,600.8,v001,different,shape1_convex_area1,1,convex,5
shape2,concave_area2,10,91,same,4,1217.8,v001,different,shape2_concave_area2,0,concave,5
shape6,concave_area2,10,92,same,7,569.6,v001,different,shape6_concave_area2,0,concave,5
shape8,concave_nofill_area1,10,93,same,4,617.1,v001,different,shape8_concave_nofill_area1,0,concave_nofill,5
catch_shape,change3,10,94,different,3,508.1,v001,different,catch_shape_change3,1,none,5
shape7,concave_area1,10,95,same,7,384.3,v001,different,shape7_concave_area1,0,concave,5
shape3,no_change5,10,96,same,7,723.8,v001,same,shape3_no_change5,1,none,5
shape5,concave_nofill_area2,10,97,same,8,653,v001,different,shape5_concave_nofill_area2,0,concave_nofill,5
shape4,no_change2,10,98,same,9,390,v001,same,shape4_no_change2,1,none,5
shape7,convex_area2,11,99,different,3,703,v001,different,shape7_convex_area2,1,convex,5
shape1,no_change5,11,100,same,9,584.4,v001,same,shape1_no_change5,1,none,5
catch_shape,no_change3,11,101,same,9,415.8,v001,same,catch_shape_no_change3,1,none,5
shape8,convex_area1,11,102,different,4,732.1,v001,different,shape8_convex_area1,1,convex,5
shape2,no_change5,11,103,different,5,1162.7,v001,same,shape2_no_change5,0,none,5
shape6,concave_nofill_area1,11,104,same,6,485.9,v001,different,shape6_concave_nofill_area1,0,concave_nofill,5
shape3,convex_area1,11,105,same,7,565.1,v001,different,shape3_convex_area1,0,convex,5
shape4,no_change1,11,106,same,8,431.4,v001,same,shape4_no_change1,1,none,5
shape5,no_change3,11,107,same,9,609.4,v001,same,shape5_no_change3,1,none,5
shape4,concave_nofill_area2,0,0,different,9,5856.6,v001,different,shape4_concave_nofill_area2,1,concave_nofill,6
shape7,no_change1,0,1,same,9,4619.6,v001,same,shape7_no_change1,1,none,6
shape8,concave_area1,0,2,same,8,3923.8,v001,different,shape8_concave_area1,0,concave,6
shape6,convex_area2,0,3,same,5,3580.7,v001,different,shape6_convex_area2,0,convex,6
shape1,no_change3,0,4,same,9,4641.9,v001,same,shape1_no_change3,1,none,6
shape2,no_change1,0,5,same,9,1827.1,v001,same,shape2_no_change1,1,none,6
catch_shape,change1,0,6,different,9,2807.4,v001,different,catch_shape_change1,1,none,6
shape5,concave_area1,0,7,same,9,1826.3,v001,different,shape5_concave_area1,0,concave,6
shape3,convex_area2,0,8,same,7,3020.7,v001,different,shape3_convex_area2,0,convex,6
shape3,no_change1,1,9,same,9,2043.9,v001,same,shape3_no_change1,1,none,6
shape2,convex_area1,1,10,different,5,3068.4,v001,different,shape2_convex_area1,1,convex,6
shape1,no_change5,1,11,same,9,5476.4,v001,same,shape1_no_change5,1,none,6
shape6,no_change3,1,12,same,5,2796.4,v001,same,shape6_no_change3,1,none,6
catch_shape,change6,1,13,different,9,2573.3,v001,different,catch_shape_change6,1,none,6
shape8,no_change1,1,14,different,8,2380.3,v001,same,shape8_no_change1,0,none,6
shape7,concave_area2,1,15,same,5,1778.1,v001,different,shape7_concave_area2,0,concave,6
shape5,no_change6,1,16,same,9,2195.5,v001,same,shape5_no_change6,1,none,6
shape4,concave_area1,1,17,different,7,1882.2,v001,different,shape4_concave_area1,1,concave,6
shape8,no_change2,2,18,same,9,2475.9,v001,same,shape8_no_change2,1,none,6
shape4,concave_nofill_area1,2,19,different,8,3091.9,v001,different,shape4_concave_nofill_area1,1,concave_nofill,6
catch_shape,no_change4,2,20,same,9,1890.7,v001,same,catch_shape_no_change4,1,none,6
shape2,concave_nofill_area2,2,21,same,5,2476.4,v001,different,shape2_concave_nofill_area2,0,concave_nofill,6
shape5,no_change5,2,22,same,9,3092.9,v001,same,shape5_no_change5,1,none,6
shape7,convex_area1,2,23,same,8,1868.5,v001,different,shape7_convex_area1,0,convex,6
shape6,convex_area1,2,24,different,4,4754.2,v001,different,shape6_convex_area1,1,convex,6
shape1,no_change6,2,25,same,9,3705.8,v001,same,shape1_no_change6,1,none,6
shape3,no_change2,2,26,same,9,1860.3,v001,same,shape3_no_change2,1,none,6
shape3,no_change3,3,27,same,9,1950.3,v001,same,shape3_no_change3,1,none,6
shape8,no_change6,3,28,same,9,2322.3,v001,same,shape8_no_change6,1,none,6
catch_shape,no_change3,3,29,same,9,2746.2,v001,same,catch_shape_no_change3,1,none,6
shape4,no_change3,3,30,same,9,2091.9,v001,same,shape4_no_change3,1,none,6
shape5,convex_area1,3,31,same,9,3541.2,v001,different,shape5_convex_area1,0,convex,6
shape1,concave_nofill_area2,3,32,same,5,2403.5,v001,different,shape1_concave_nofill_area2,0,concave_nofill,6
shape7,concave_nofill_area1,3,33,different,6,2320.5,v001,different,shape7_concave_nofill_area1,1,concave_nofill,6
shape6,concave_area2,3,34,same,9,1554.6,v001,different,shape6_concave_area2,0,concave,6
shape2,no_change4,3,35,same,9,3513.7,v001,same,shape2_no_change4,1,none,6
shape7,no_change2,4,36,same,9,1922.4,v001,same,shape7_no_change2,1,none,6
shape4,no_change2,4,37,same,9,1600.9,v001,same,shape4_no_change2,1,none,6
catch_shape,change4,4,38,different,9,1331.7,v001,different,catch_shape_change4,1,none,6
shape1,concave_nofill_area1,4,39,different,6,1668.8,v001,different,shape1_concave_nofill_area1,1,concave_nofill,6
shape2,concave_area2,4,40,different,9,3781.9,v001,different,shape2_concave_area2,1,concave,6
shape3,concave_nofill_area1,4,41,different,9,2602.8,v001,different,shape3_concave_nofill_area1,1,concave_nofill,6
shape8,concave_nofill_area1,4,42,different,9,2025.3,v001,different,shape8_concave_nofill_area1,1,concave_nofill,6
shape5,concave_nofill_area1,4,43,different,9,2556.6,v001,different,shape5_concave_nofill_area1,1,concave_nofill,6
shape6,concave_nofill_area1,4,44,different,9,3053.1,v001,different,shape6_concave_nofill_area1,1,concave_nofill,6
shape1,concave_area1,5,45,different,9,3194.8,v001,different,shape1_concave_area1,1,concave,6
shape4,no_change5,5,46,same,9,2549.8,v001,same,shape4_no_change5,1,none,6
shape8,concave_area2,5,47,different,9,7404.7,v001,different,shape8_concave_area2,1,concave,6
shape6,no_change4,5,48,same,9,3523.5,v001,same,shape6_no_change4,1,none,6
shape2,concave_area1,5,49,different,9,1427.2,v001,different,shape2_concave_area1,1,concave,6
shape3,no_change4,5,50,same,8,1737.8,v001,same,shape3_no_change4,1,none,6
catch_shape,no_change5,5,51,same,9,1533,v001,same,catch_shape_no_change5,1,none,6
shape7,concave_nofill_area2,5,52,different,9,2293.9,v001,different,shape7_concave_nofill_area2,1,concave_nofill,6
shape5,no_change4,5,53,same,7,1803.3,v001,same,shape5_no_change4,1,none,6
shape1,no_change2,6,54,same,9,1596.2,v001,same,shape1_no_change2,1,none,6
shape2,no_change2,6,55,same,9,1706.4,v001,same,shape2_no_change2,1,none,6
shape7,convex_area2,6,56,different,7,3099.8,v001,different,shape7_convex_area2,1,convex,6
shape5,no_change3,6,57,same,9,4002.5,v001,same,shape5_no_change3,1,none,6
shape8,no_change3,6,58,different,1,3842.2,v001,same,shape8_no_change3,0,none,6
catch_shape,change5,6,59,different,9,1763.3,v001,different,catch_shape_change5,1,none,6
shape6,no_change2,6,60,same,9,1747.6,v001,same,shape6_no_change2,1,none,6
shape3,no_change5,6,61,same,6,4637.7,v001,same,shape3_no_change5,1,none,6
shape4,no_change6,6,62,same,9,1753.7,v001,same,shape4_no_change6,1,none,6
shape1,no_change4,7,63,same,9,1932.1,v001,same,shape1_no_change4,1,none,6
catch_shape,no_change6,7,64,same,9,2883,v001,same,catch_shape_no_change6,1,none,6
shape4,no_change1,7,65,same,9,3567.9,v001,same,shape4_no_change1,1,none,6
shape8,concave_nofill_area2,7,66,different,9,2492.1,v001,different,shape8_concave_nofill_area2,1,concave_nofill,6
shape2,no_change6,7,67,same,9,1491,v001,same,shape2_no_change6,1,none,6
shape3,convex_area1,7,68,same,9,2492.6,v001,different,shape3_convex_area1,0,convex,6
shape6,no_change1,7,69,same,8,1714.4,v001,same,shape6_no_change1,1,none,6
shape5,concave_area2,7,70,same,9,1449.3,v001,different,shape5_concave_area2,0,concave,6
shape7,no_change5,7,71,same,9,3611.1,v001,same,shape7_no_change5,1,none,6
shape3,concave_nofill_area2,8,72,different,9,1674.4,v001,different,shape3_concave_nofill_area2,1,concave_nofill,6
shape7,no_change4,8,73,same,9,2010.3,v001,same,shape7_no_change4,1,none,6
shape4,convex_area2,8,74,different,9,1594.9,v001,different,shape4_convex_area2,1,convex,6
shape6,no_change6,8,75,same,9,1515.7,v001,same,shape6_no_change6,1,none,6
shape2,no_change5,8,76,same,9,3253.9,v001,same,shape2_no_change5,1,none,6
catch_shape,change2,8,77,different,9,3323.3,v001,different,catch_shape_change2,1,none,6
shape5,no_change2,8,78,same,9,2226.1,v001,same,shape5_no_change2,1,none,6
shape1,convex_area2,8,79,different,9,1603.7,v001,different,shape1_convex_area2,1,convex,6
shape8,no_change4,8,80,same,9,2123,v001,same,shape8_no_change4,1,none,6
shape4,convex_area1,9,81,different,9,2464.1,v001,different,shape4_convex_area1,1,convex,6
shape6,no_change5,9,82,same,9,1509,v001,same,shape6_no_change5,1,none,6
shape8,convex_area1,9,83,different,9,2235.6,v001,different,shape8_convex_area1,1,convex,6
shape3,no_change6,9,84,different,8,2788.2,v001,same,shape3_no_change6,0,none,6
shape2,convex_area2,9,85,different,9,1434.8,v001,different,shape2_convex_area2,1,convex,6
shape5,convex_area2,9,86,different,9,2452.4,v001,different,shape5_convex_area2,1,convex,6
shape1,no_change1,9,87,same,9,1564.7,v001,same,shape1_no_change1,1,none,6
catch_shape,no_change2,9,88,same,9,3425.7,v001,same,catch_shape_no_change2,1,none,6
shape7,no_change3,9,89,same,9,1717.8,v001,same,shape7_no_change3,1,none,6
shape1,convex_area1,10,90,different,9,2123,v001,different,shape1_convex_area1,1,convex,6
shape2,concave_nofill_area1,10,91,different,9,1127.3,v001,different,shape2_concave_nofill_area1,1,concave_nofill,6
shape6,concave_area1,10,92,different,5,2541.8,v001,different,shape6_concave_area1,1,concave,6
shape4,concave_area2,10,93,different,9,1795.7,v001,different,shape4_concave_area2,1,concave,6
shape5,no_change1,10,94,same,9,1836.2,v001,same,shape5_no_change1,1,none,6
shape3,concave_area1,10,95,same,9,2462.6,v001,different,shape3_concave_area1,0,concave,6
catch_shape,change3,10,96,different,9,1163.8,v001,different,catch_shape_change3,1,none,6
shape8,convex_area2,10,97,different,7,1532.6,v001,different,shape8_convex_area2,1,convex,6
shape7,concave_area1,10,98,same,9,3252.1,v001,different,shape7_concave_area1,0,concave,6
shape4,no_change4,11,99,same,9,1688.6,v001,same,shape4_no_change4,1,none,6
shape3,concave_area2,11,100,same,9,1801.8,v001,different,shape3_concave_area2,0,concave,6
shape6,concave_nofill_area2,11,101,different,8,1468.5,v001,different,shape6_concave_nofill_area2,1,concave_nofill,6
shape2,no_change3,11,102,same,9,2073.4,v001,same,shape2_no_change3,1,none,6
catch_shape,no_change1,11,103,same,9,2283.7,v001,same,catch_shape_no_change1,1,none,6
shape8,no_change5,11,104,same,9,1844.9,v001,same,shape8_no_change5,1,none,6
shape7,no_change6,11,105,same,9,1373.8,v001,same,shape7_no_change6,1,none,6
shape5,concave_nofill_area2,11,106,different,9,1301.4,v001,different,shape5_concave_nofill_area2,1,concave_nofill,6
shape1,concave_area2,11,107,different,3,2536.4,v001,different,shape1_concave_area2,1,concave,6
catch_shape,change2,0,0,different,9,9428.3,v001,different,catch_shape_change2,1,none,7
shape3,no_change6,0,1,same,9,2200.5,v001,same,shape3_no_change6,1,none,7
shape8,no_change4,0,2,same,9,2445,v001,same,shape8_no_change4,1,none,7
shape4,concave_area1,0,3,same,5,2869.2,v001,different,shape4_concave_area1,0,concave,7
shape7,no_change1,0,4,same,9,6056.6,v001,same,shape7_no_change1,1,none,7
shape6,concave_area2,0,5,different,9,1753.1,v001,different,shape6_concave_area2,1,concave,7
shape5,concave_area2,0,6,same,1,5335.4,v001,different,shape5_concave_area2,0,concave,7
shape2,convex_area2,0,7,different,8,2219,v001,different,shape2_convex_area2,1,convex,7
shape1,no_change6,0,8,same,9,1946.7,v001,same,shape1_no_change6,1,none,7
shape7,no_change5,1,9,same,4,3611.5,v001,same,shape7_no_change5,1,none,7
shape1,convex_area1,1,10,same,6,4491.4,v001,different,shape1_convex_area1,0,convex,7
shape4,no_change2,1,11,different,9,1385.9,v001,same,shape4_no_change2,0,none,7
shape2,no_change1,1,12,different,9,1454.4,v001,same,shape2_no_change1,0,none,7
shape6,concave_area1,1,13,same,6,4487.5,v001,different,shape6_concave_area1,0,concave,7
shape8,concave_area1,1,14,same,4,3631.5,v001,different,shape8_concave_area1,0,concave,7
shape3,concave_area1,1,15,different,8,2119.3,v001,different,shape3_concave_area1,1,concave,7
shape5,concave_nofill_area1,1,16,different,9,1613.9,v001,different,shape5_concave_nofill_area1,1,concave_nofill,7
catch_shape,no_change4,1,17,same,9,2092.5,v001,same,catch_shape_no_change4,1,none,7
shape8,convex_area1,2,18,same,8,3316.7,v001,different,shape8_convex_area1,0,convex,7
shape3,no_change1,2,19,same,9,2076.9,v001,same,shape3_no_change1,1,none,7
shape4,no_change6,2,20,same,7,2859.7,v001,same,shape4_no_change6,1,none,7
shape6,no_change6,2,21,same,9,1766.1,v001,same,shape6_no_change6,1,none,7
shape2,no_change5,2,22,same,9,5415.2,v001,same,shape2_no_change5,1,none,7
shape1,concave_nofill_area1,2,23,same,9,1365.9,v001,different,shape1_concave_nofill_area1,0,concave_nofill,7
catch_shape,no_change3,2,24,same,9,1503.2,v001,same,catch_shape_no_change3,1,none,7
shape5,convex_area2,2,25,different,9,1299.3,v001,different,shape5_convex_area2,1,convex,7
shape7,concave_nofill_area2,2,26,different,9,1475.5,v001,different,shape7_concave_nofill_area2,1,concave_nofill,7
shape7,concave_area1,3,27,different,9,4028.6,v001,different,shape7_concave_area1,1,concave,7
shape1,no_change2,3,28,same,8,3991.4,v001,same,shape1_no_change2,1,none,7
shape5,concave_nofill_area2,3,29,different,9,1260.2,v001,different,shape5_concave_nofill_area2,1,concave_nofill,7
shape4,convex_area1,3,30,same,5,2355.9,v001,different,shape4_convex_area1,0,convex,7
shape8,no_change1,3,31,same,8,1754,v001,same,shape8_no_change1,1,none,7
catch_shape,change3,3,32,different,9,1546,v001,different,catch_shape_change3,1,none,7
shape2,no_change2,3,33,same,8,1882.4,v001,same,shape2_no_change2,1,none,7
shape6,concave_nofill_area2,3,34,same,5,2983.3,v001,different,shape6_concave_nofill_area2,0,concave_nofill,7
shape3,no_change2,3,35,same,8,1625.7,v001,same,shape3_no_change2,1,none,7
shape3,convex_area2,4,36,same,9,2479.3,v001,different,shape3_convex_area2,0,convex,7
shape8,no_change2,4,37,same,9,1237.9,v001,same,shape8_no_change2,1,none,7
catch_shape,change4,4,38,different,9,1839.5,v001,different,catch_shape_change4,1,none,7
shape2,concave_area2,4,39,different,9,1840,v001,different,shape2_concave_area2,1,concave,7
shape4,convex_area2,4,40,same,8,1776,v001,different,shape4_convex_area2,0,convex,7
shape5,no_change4,4,41,different,6,3430.7,v001,same,shape5_no_change4,0,none,7
shape1,concave_area1,4,42,different,1,3708.8,v001,different,shape1_concave_area1,1,concave,7
shape6,convex_area1,4,43,different,9,1679.2,v001,different,shape6_convex_area1,1,convex,7
shape7,convex_area2,4,44,different,3,3627.6,v001,different,shape7_convex_area2,1,convex,7
shape4,concave_area2,5,45,different,9,2068.9,v001,different,shape4_concave_area2,1,concave,7
shape2,no_change6,5,46,same,9,1511.6,v001,same,shape2_no_change6,1,none,7
shape7,no_change6,5,47,different,9,1598.5,v001,same,shape7_no_change6,0,none,7
shape1,no_change4,5,48,different,1,2260.6,v001,same,shape1_no_change4,0,none,7
catch_shape,no_change6,5,49,same,9,1593.1,v001,same,catch_shape_no_change6,1,none,7
shape3,concave_nofill_area2,5,50,different,3,2517.1,v001,different,shape3_concave_nofill_area2,1,concave_nofill,7
shape5,no_change5,5,51,different,2,1534.4,v001,same,shape5_no_change5,0,none,7
shape6,concave_nofill_area1,5,52,different,7,1571.7,v001,different,shape6_concave_nofill_area1,1,concave_nofill,7
shape8,no_change5,5,53,same,8,1301.5,v001,same,shape8_no_change5,1,none,7
shape1,concave_area2,6,54,different,9,2176.1,v001,different,shape1_concave_area2,1,concave,7
shape2,no_change3,6,55,same,8,1276.9,v001,same,shape2_no_change3,1,none,7
shape8,no_change6,6,56,different,3,1031.4,v001,same,shape8_no_change6,0,none,7
catch_shape,no_change5,6,57,same,9,1666.8,v001,same,catch_shape_no_change5,1,none,7
shape6,no_change1,6,58,same,9,4292.6,v001,same,shape6_no_change1,1,none,7
shape5,no_change1,6,59,same,9,1707.8,v001,same,shape5_no_change1,1,none,7
shape3,convex_area1,6,60,same,9,3054.2,v001,different,shape3_convex_area1,0,convex,7
shape4,no_change1,6,61,different,1,1599.6,v001,same,shape4_no_change1,0,none,7
shape7,no_change3,6,62,same,9,1682.8,v001,same,shape7_no_change3,1,none,7
shape3,no_change3,7,63,same,8,2320.2,v001,same,shape3_no_change3,1,none,7
shape1,no_change3,7,64,same,8,1747.3,v001,same,shape1_no_change3,1,none,7
shape8,no_change3,7,65,same,9,895,v001,same,shape8_no_change3,1,none,7
shape4,no_change5,7,66,same,8,869.4,v001,same,shape4_no_change5,1,none,7
shape6,no_change2,7,67,same,8,1392.4,v001,same,shape6_no_change2,1,none,7
catch_shape,no_change2,7,68,same,9,933.8,v001,same,catch_shape_no_change2,1,none,7
shape7,concave_nofill_area1,7,69,different,7,1556.8,v001,different,shape7_concave_nofill_area1,1,concave_nofill,7
shape5,concave_area1,7,70,different,9,1472.7,v001,different,shape5_concave_area1,1,concave,7
shape2,no_change4,7,71,same,9,1246.5,v001,same,shape2_no_change4,1,none,7
shape2,convex_area1,8,72,different,7,1630.1,v001,different,shape2_convex_area1,1,convex,7
shape3,no_change5,8,73,same,9,2642.2,v001,same,shape3_no_change5,1,none,7
shape6,convex_area2,8,74,different,9,1412.5,v001,different,shape6_convex_area2,1,convex,7
shape4,concave_nofill_area1,8,75,different,9,2240,v001,different,shape4_concave_nofill_area1,1,concave_nofill,7
catch_shape,change6,8,76,different,9,1182.7,v001,different,catch_shape_change6,1,none,7
shape7,no_change2,8,77,same,9,816.9,v001,same,shape7_no_change2,1,none,7
shape8,concave_nofill_area2,8,78,different,9,1841.6,v001,different,shape8_concave_nofill_area2,1,concave_nofill,7
shape1,no_change1,8,79,same,9,4193.8,v001,same,shape1_no_change1,1,none,7
shape5,no_change3,8,80,different,1,2572.4,v001,same,shape5_no_change3,0,none,7
shape2,concave_nofill_area1,9,81,different,9,2890,v001,different,shape2_concave_nofill_area1,1,concave_nofill,7
shape1,no_change5,9,82,same,9,3753.9,v001,same,shape1_no_change5,1,none,7
shape6,no_change3,9,83,same,8,736.1,v001,same,shape6_no_change3,1,none,7
shape7,convex_area1,9,84,different,1,1428.7,v001,different,shape7_convex_area1,1,convex,7
shape8,concave_nofill_area1,9,85,different,8,1533,v001,different,shape8_concave_nofill_area1,1,concave_nofill,7
shape3,concave_nofill_area1,9,86,same,3,2578.3,v001,different,shape3_concave_nofill_area1,0,concave_nofill,7
shape5,no_change2,9,87,different,9,978.9,v001,same,shape5_no_change2,0,none,7
catch_shape,change1,9,88,different,9,998.6,v001,different,catch_shape_change1,1,none,7
shape4,no_change3,9,89,same,9,1268,v001,same,shape4_no_change3,1,none,7
shape1,convex_area2,10,90,different,9,1522.6,v001,different,shape1_convex_area2,1,convex,7
shape5,convex_area1,10,91,different,9,1482.1,v001,different,shape5_convex_area1,1,convex,7
shape6,no_change4,10,92,same,9,881,v001,same,shape6_no_change4,1,none,7
shape7,no_change4,10,93,same,9,1354.7,v001,same,shape7_no_change4,1,none,7
catch_shape,no_change1,10,94,same,9,1932.8,v001,same,catch_shape_no_change1,1,none,7
shape8,convex_area2,10,95,different,6,1244.2,v001,different,shape8_convex_area2,1,convex,7
shape4,no_change4,10,96,same,9,2318.5,v001,same,shape4_no_change4,1,none,7
shape3,concave_area2,10,97,same,6,3520.6,v001,different,shape3_concave_area2,0,concave,7
shape2,concave_area1,10,98,different,9,2150,v001,different,shape2_concave_area1,1,concave,7
shape6,no_change5,11,99,same,8,844,v001,same,shape6_no_change5,1,none,7
shape8,concave_area2,11,100,different,9,1304.1,v001,different,shape8_concave_area2,1,concave,7
shape3,no_change4,11,101,same,7,1319.5,v001,same,shape3_no_change4,1,none,7
shape4,concave_nofill_area2,11,102,different,9,895.8,v001,different,shape4_concave_nofill_area2,1,concave_nofill,7
shape5,no_change6,11,103,different,6,1000.2,v001,same,shape5_no_change6,0,none,7
shape7,concave_area2,11,104,different,7,904.5,v001,different,shape7_concave_area2,1,concave,7
shape2,concave_nofill_area2,11,105,different,9,821.6,v001,different,shape2_concave_nofill_area2,1,concave_nofill,7
catch_shape,change5,11,106,different,9,3087.4,v001,different,catch_shape_change5,1,none,7
shape1,concave_nofill_area2,11,107,different,6,1496.7,v001,different,shape1_concave_nofill_area2,1,concave_nofill,7
shape5,no_change3,0,0,same,9,11362.1,v001,same,shape5_no_change3,1,none,8
shape1,no_change3,0,1,same,9,3330,v001,same,shape1_no_change3,1,none,8
shape6,no_change4,0,2,same,9,3445.8,v001,same,shape6_no_change4,1,none,8
shape2,concave_nofill_area2,0,3,different,6,4497.1,v001,different,shape2_concave_nofill_area2,1,concave_nofill,8
catch_shape,no_change5,0,4,same,9,2062.9,v001,same,catch_shape_no_change5,1,none,8
shape4,convex_area2,0,5,different,1,5395.1,v001,different,shape4_convex_area2,1,convex,8
shape8,convex_area1,0,6,different,4,3891.3,v001,different,shape8_convex_area1,1,convex,8
shape3,no_change3,0,7,same,6,3675.9,v001,same,shape3_no_change3,1,none,8
shape7,concave_area1,0,8,same,5,3543.8,v001,different,shape7_concave_area1,0,concave,8
shape4,concave_area1,1,9,same,4,2351.6,v001,different,shape4_concave_area1,0,concave,8
shape3,convex_area2,1,10,same,5,4531.4,v001,different,shape3_convex_area2,0,convex,8
shape5,no_change2,1,11,same,4,2837.1,v001,same,shape5_no_change2,1,none,8
shape7,concave_nofill_area2,1,12,different,8,2264.3,v001,different,shape7_concave_nofill_area2,1,concave_nofill,8
shape2,concave_area2,1,13,different,7,2499.9,v001,different,shape2_concave_area2,1,concave,8
shape1,no_change1,1,14,same,6,3820.2,v001,same,shape1_no_change1,1,none,8
catch_shape,no_change3,1,15,same,9,2215.9,v001,same,catch_shape_no_change3,1,none,8
shape6,no_change1,1,16,same,6,1508.5,v001,same,shape6_no_change1,1,none,8
shape8,concave_nofill_area2,1,17,different,8,1535.6,v001,different,shape8_concave_nofill_area2,1,concave_nofill,8
shape6,convex_area1,2,18,different,7,3869.8,v001,different,shape6_convex_area1,1,convex,8
shape4,no_change2,2,19,same,7,2142.8,v001,same,shape4_no_change2,1,none,8
shape8,concave_nofill_area1,2,20,different,8,1088.4,v001,different,shape8_concave_nofill_area1,1,concave_nofill,8
catch_shape,no_change6,2,21,different,9,2237,v001,same,catch_shape_no_change6,0,none,8
shape7,no_change2,2,22,different,7,1131.6,v001,same,shape7_no_change2,0,none,8
shape3,no_change5,2,23,different,6,2068.6,v001,same,shape3_no_change5,0,none,8
shape5,concave_nofill_area2,2,24,different,8,1427.7,v001,different,shape5_concave_nofill_area2,1,concave_nofill,8
shape2,no_change5,2,25,different,7,1314.5,v001,same,shape2_no_change5,0,none,8
shape1,no_change6,2,26,same,7,3691.1,v001,same,shape1_no_change6,1,none,8
shape1,concave_nofill_area1,3,27,different,4,2753.7,v001,different,shape1_concave_nofill_area1,1,concave_nofill,8
shape7,no_change1,3,28,same,5,6968.3,v001,same,shape7_no_change1,1,none,8
catch_shape,no_change4,3,29,same,8,4835.9,v001,same,catch_shape_no_change4,1,none,8
shape2,no_change6,3,30,same,6,2527.1,v001,same,shape2_no_change6,1,none,8
shape3,no_change1,3,31,same,6,1999.1,v001,same,shape3_no_change1,1,none,8
shape4,convex_area1,3,32,same,6,1561.3,v001,different,shape4_convex_area1,0,convex,8
shape8,no_change6,3,33,same,7,1585,v001,same,shape8_no_change6,1,none,8
shape5,concave_area1,3,34,different,7,1197.9,v001,different,shape5_concave_area1,1,concave,8
shape6,no_change6,3,35,same,6,1937.5,v001,same,shape6_no_change6,1,none,8
shape1,no_change2,4,36,same,7,2108.2,v001,same,shape1_no_change2,1,none,8
shape2,convex_area1,4,37,different,8,1167.2,v001,different,shape2_convex_area1,1,convex,8
shape8,no_change1,4,38,same,6,1455.3,v001,same,shape8_no_change1,1,none,8
catch_shape,no_change2,4,39,same,9,1753.4,v001,same,catch_shape_no_change2,1,none,8
shape7,concave_area2,4,40,different,3,3054.8,v001,different,shape7_concave_area2,1,concave,8
shape5,concave_area2,4,41,different,6,1228.3,v001,different,shape5_concave_area2,1,concave,8
shape4,no_change5,4,42,same,7,1668.9,v001,same,shape4_no_change5,1,none,8
shape6,concave_area1,4,43,different,2,3949.7,v001,different,shape6_concave_area1,1,concave,8
shape3,no_change4,4,44,same,6,1518.2,v001,same,shape3_no_change4,1,none,8
catch_shape,change1,5,45,different,9,2168.5,v001,different,catch_shape_change1,1,none,8
shape2,no_change4,5,46,same,7,2036.2,v001,same,shape2_no_change4,1,none,8
shape8,concave_area1,5,47,different,7,2848.9,v001,different,shape8_concave_area1,1,concave,8
shape3,no_change2,5,48,same,7,2331.4,v001,same,shape3_no_change2,1,none,8
shape6,concave_nofill_area1,5,49,different,7,1899.9,v001,different,shape6_concave_nofill_area1,1,concave_nofill,8
shape1,concave_area1,5,50,different,5,1665.3,v001,different,shape1_concave_area1,1,concave,8
shape7,no_change6,5,51,same,7,1455.6,v001,same,shape7_no_change6,1,none,8
shape4,concave_area2,5,52,different,8,1949.3,v001,different,shape4_concave_area2,1,concave,8
shape5,convex_area1,5,53,different,6,1094.1,v001,different,shape5_convex_area1,1,convex,8
shape1,convex_area2,6,54,different,7,2178.8,v001,different,shape1_convex_area2,1,convex,8
catch_shape,change4,6,55,different,9,1268.8,v001,different,catch_shape_change4,1,none,8
shape8,concave_area2,6,56,different,6,1794.9,v001,different,shape8_concave_area2,1,concave,8
shape7,no_change3,6,57,same,6,1020.4,v001,same,shape7_no_change3,1,none,8
shape2,convex_area2,6,58,different,7,967.3,v001,different,shape2_convex_area2,1,convex,8
shape5,concave_nofill_area1,6,59,different,7,915.7,v001,different,shape5_concave_nofill_area1,1,concave_nofill,8
shape4,concave_nofill_area1,6,60,different,4,1044.1,v001,different,shape4_concave_nofill_area1,1,concave_nofill,8
shape3,concave_area2,6,61,different,5,1110.2,v001,different,shape3_concave_area2,1,concave,8
shape6,convex_area2,6,62,different,8,870.5,v001,different,shape6_convex_area2,1,convex,8
shape1,no_change5,7,63,same,6,1498.5,v001,same,shape1_no_change5,1,none,8
shape4,no_change1,7,64,same,6,906.9,v001,same,shape4_no_change1,1,none,8
shape2,no_change3,7,65,same,7,1068.4,v001,same,shape2_no_change3,1,none,8
catch_shape,change2,7,66,different,9,1261.5,v001,different,catch_shape_change2,1,none,8
shape6,concave_area2,7,67,different,4,1268.1,v001,different,shape6_concave_area2,1,concave,8
shape8,no_change2,7,68,same,7,968.8,v001,same,shape8_no_change2,1,none,8
shape7,concave_nofill_area1,7,69,different,9,759.5,v001,different,shape7_concave_nofill_area1,1,concave_nofill,8
shape3,no_change6,7,70,same,7,1171.4,v001,same,shape3_no_change6,1,none,8
shape5,no_change4,7,71,same,5,1204.8,v001,same,shape5_no_change4,1,none,8
shape1,no_change4,8,72,same,7,1701.1,v001,same,shape1_no_change4,1,none,8
shape3,concave_nofill_area1,8,73,different,5,1427.7,v001,different,shape3_concave_nofill_area1,1,concave_nofill,8
shape7,convex_area1,8,74,different,8,1093.4,v001,different,shape7_convex_area1,1,convex,8
shape2,no_change2,8,75,same,7,1271.6,v001,same,shape2_no_change2,1,none,8
shape4,no_change4,8,76,same,7,643.8,v001,same,shape4_no_change4,1,none,8
catch_shape,change3,8,77,different,9,2046.6,v001,different,catch_shape_change3,1,none,8
shape5,no_change5,8,78,same,8,776.3,v001,same,shape5_no_change5,1,none,8
shape8,convex_area2,8,79,different,9,898.5,v001,different,shape8_convex_area2,1,convex,8
shape6,no_change2,8,80,same,8,808.5,v001,same,shape6_no_change2,1,none,8
shape5,no_change1,9,81,different,3,1028.6,v001,same,shape5_no_change1,0,none,8
shape4,no_change3,9,82,same,2,1899.8,v001,same,shape4_no_change3,1,none,8
shape2,concave_nofill_area1,9,83,different,8,771.3,v001,different,shape2_concave_nofill_area1,1,concave_nofill,8
shape1,concave_nofill_area2,9,84,different,9,777.1,v001,different,shape1_concave_nofill_area2,1,concave_nofill,8
shape8,no_change5,9,85,different,1,3454.1,v001,same,shape8_no_change5,0,none,8
catch_shape,no_change1,9,86,same,9,1078,v001,same,catch_shape_no_change1,1,none,8
shape3,concave_area1,9,87,same,7,1632.8,v001,different,shape3_concave_area1,0,concave,8
shape6,no_change5,9,88,same,7,1166,v001,same,shape6_no_change5,1,none,8
shape7,convex_area2,9,89,different,8,964.6,v001,different,shape7_convex_area2,1,convex,8
shape1,concave_area2,10,90,different,8,996,v001,different,shape1_concave_area2,1,concave,8
shape2,no_change1,10,91,same,7,1282.2,v001,same,shape2_no_change1,1,none,8
shape3,convex_area1,10,92,same,4,5143.4,v001,different,shape3_convex_area1,0,convex,8
shape6,concave_nofill_area2,10,93,different,6,904.3,v001,different,shape6_concave_nofill_area2,1,concave_nofill,8
shape5,convex_area2,10,94,different,5,1620.5,v001,different,shape5_convex_area2,1,convex,8
catch_shape,change5,10,95,different,9,885.1,v001,different,catch_shape_change5,1,none,8
shape4,concave_nofill_area2,10,96,different,9,873.2,v001,different,shape4_concave_nofill_area2,1,concave_nofill,8
shape7,no_change4,10,97,same,9,1218.1,v001,same,shape7_no_change4,1,none,8
shape8,no_change4,10,98,same,8,638.5,v001,same,shape8_no_change4,1,none,8
shape1,convex_area1,11,99,different,9,735.8,v001,different,shape1_convex_area1,1,convex,8
shape6,no_change3,11,100,same,6,1281.8,v001,same,shape6_no_change3,1,none,8
shape2,concave_area1,11,101,different,7,894,v001,different,shape2_concave_area1,1,concave,8
shape3,concave_nofill_area2,11,102,same,6,1097.7,v001,different,shape3_concave_nofill_area2,0,concave_nofill,8
shape7,no_change5,11,103,different,1,2528.9,v001,same,shape7_no_change5,0,none,8
shape8,no_change3,11,104,same,7,1033,v001,same,shape8_no_change3,1,none,8
shape4,no_change6,11,105,same,8,940,v001,same,shape4_no_change6,1,none,8
shape5,no_change6,11,106,same,3,1592.1,v001,same,shape5_no_change6,1,none,8
catch_shape,change6,11,107,different,9,2743.9,v001,different,catch_shape_change6,1,none,8
shape7,concave_area2,0,0,different,1,11811.9,v001,different,shape7_concave_area2,1,concave,9
shape2,convex_area1,0,1,different,9,6050.5,v001,different,shape2_convex_area1,1,convex,9
shape8,convex_area2,0,2,different,9,2080.3,v001,different,shape8_convex_area2,1,convex,9
shape1,no_change6,0,3,different,8,1943.4,v001,same,shape1_no_change6,0,none,9
shape6,no_change2,0,4,same,6,2208.2,v001,same,shape6_no_change2,1,none,9
shape4,no_change5,0,5,same,6,2759,v001,same,shape4_no_change5,1,none,9
shape3,no_change2,0,6,different,9,1717.7,v001,same,shape3_no_change2,0,none,9
shape5,no_change6,0,7,different,9,2109.8,v001,same,shape5_no_change6,0,none,9
catch_shape,change1,0,8,different,1,4213.9,v001,different,catch_shape_change1,1,none,9
shape5,no_change4,1,9,same,9,2037.6,v001,same,shape5_no_change4,1,none,9
shape2,convex_area2,1,10,same,9,2407.4,v001,different,shape2_convex_area2,0,convex,9
shape6,no_change3,1,11,same,9,1455,v001,same,shape6_no_change3,1,none,9
shape7,no_change2,1,12,different,4,2982,v001,same,shape7_no_change2,0,none,9
shape8,concave_nofill_area2,1,13,different,8,2577.8,v001,different,shape8_concave_nofill_area2,1,concave_nofill,9
shape3,no_change3,1,14,different,6,1287.1,v001,same,shape3_no_change3,0,none,9
catch_shape,no_change4,1,15,same,9,1722.6,v001,same,catch_shape_no_change4,1,none,9
shape4,no_change1,1,16,same,7,1206.5,v001,same,shape4_no_change1,1,none,9
shape1,concave_area2,1,17,different,8,2172.8,v001,different,shape1_concave_area2,1,concave,9
shape2,concave_nofill_area2,2,18,different,9,2331.8,v001,different,shape2_concave_nofill_area2,1,concave_nofill,9
shape7,convex_area2,2,19,different,8,2003,v001,different,shape7_convex_area2,1,convex,9
shape3,concave_area2,2,20,different,9,2930.3,v001,different,shape3_concave_area2,1,concave,9
catch_shape,change2,2,21,different,9,1584,v001,different,catch_shape_change2,1,none,9
shape6,concave_nofill_area2,2,22,same,7,2467,v001,different,shape6_concave_nofill_area2,0,concave_nofill,9
shape8,no_change3,2,23,same,9,4026.7,v001,same,shape8_no_change3,1,none,9
shape5,concave_area2,2,24,different,7,1774.3,v001,different,shape5_concave_area2,1,concave,9
shape1,no_change4,2,25,different,8,1945.7,v001,same,shape1_no_change4,0,none,9
shape4,concave_nofill_area1,2,26,different,9,1586.7,v001,different,shape4_concave_nofill_area1,1,concave_nofill,9
shape2,no_change4,3,27,same,9,1912.1,v001,same,shape2_no_change4,1,none,9
shape6,concave_area1,3,28,same,9,2890,v001,different,shape6_concave_area1,0,concave,9
catch_shape,change3,3,29,different,9,2425.7,v001,different,catch_shape_change3,1,none,9
shape4,no_change6,3,30,different,9,3103.6,v001,same,shape4_no_change6,0,none,9
shape3,convex_area1,3,31,same,9,2697.9,v001,different,shape3_convex_area1,0,convex,9
shape8,concave_area2,3,32,same,9,4035.8,v001,different,shape8_concave_area2,0,concave,9
shape7,no_change1,3,33,same,9,1295.3,v001,same,shape7_no_change1,1,none,9
shape1,convex_area2,3,34,different,5,2173.8,v001,different,shape1_convex_area2,1,convex,9
shape5,no_change1,3,35,different,7,1561.5,v001,same,shape5_no_change1,0,none,9
catch_shape,change4,4,36,different,9,2065.1,v001,different,catch_shape_change4,1,none,9
shape1,concave_nofill_area1,4,37,same,6,1130.1,v001,different,shape1_concave_nofill_area1,0,concave_nofill,9
shape2,no_change3,4,38,same,7,1605.2,v001,same,shape2_no_change3,1,none,9
shape3,concave_nofill_area2,4,39,different,2,2522.5,v001,different,shape3_concave_nofill_area2,1,concave_nofill,9
shape8,no_change2,4,40,same,6,2639.6,v001,same,shape8_no_change2,1,none,9
shape4,convex_area1,4,41,same,6,2179.8,v001,different,shape4_convex_area1,0,convex,9
shape7,concave_nofill_area1,4,42,different,6,1366.9,v001,different,shape7_concave_nofill_area1,1,concave_nofill,9
shape6,no_change1,4,43,same,6,1720.5,v001,same,shape6_no_change1,1,none,9
shape5,convex_area1,4,44,same,3,2038.8,v001,different,shape5_convex_area1,0,convex,9
shape2,concave_nofill_area1,5,45,different,5,1933.5,v001,different,shape2_concave_nofill_area1,1,concave_nofill,9
catch_shape,change5,5,46,different,9,1944.1,v001,different,catch_shape_change5,1,none,9
shape5,no_change2,5,47,same,9,1256.2,v001,same,shape5_no_change2,1,none,9
shape7,concave_area1,5,48,same,9,2188.5,v001,different,shape7_concave_area1,0,concave,9
shape8,no_change1,5,49,same,9,3081.2,v001,same,shape8_no_change1,1,none,9
shape4,no_change3,5,50,different,5,5077.8,v001,same,shape4_no_change3,0,none,9
shape6,no_change5,5,51,same,2,2497.7,v001,same,shape6_no_change5,1,none,9
shape1,no_change5,5,52,same,8,1901.8,v001,same,shape1_no_change5,1,none,9
shape3,no_change4,5,53,different,5,1699.2,v001,same,shape3_no_change4,0,none,9
shape6,concave_nofill_area1,6,54,same,7,2869,v001,different,shape6_concave_nofill_area1,0,concave_nofill,9
shape3,concave_area1,6,55,different,3,1460.7,v001,different,shape3_concave_area1,1,concave,9
catch_shape,no_change1,6,56,same,9,2061.9,v001,same,catch_shape_no_change1,1,none,9
shape2,no_change2,6,57,same,9,2419.7,v001,same,shape2_no_change2,1,none,9
shape1,no_change1,6,58,same,9,1189.3,v001,same,shape1_no_change1,1,none,9
shape8,no_change6,6,59,same,9,3383.1,v001,same,shape8_no_change6,1,none,9
shape5,no_change5,6,60,same,9,1402.5,v001,same,shape5_no_change5,1,none,9
shape4,no_change4,6,61,different,4,1194.8,v001,same,shape4_no_change4,0,none,9
shape7,concave_nofill_area2,6,62,different,4,1424.6,v001,different,shape7_concave_nofill_area2,1,concave_nofill,9
shape2,concave_area1,7,63,different,9,1384.3,v001,different,shape2_concave_area1,1,concave,9
shape4,no_change2,7,64,same,9,1231.5,v001,same,shape4_no_change2,1,none,9
shape7,no_change4,7,65,same,9,1759.8,v001,same,shape7_no_change4,1,none,9
shape3,no_change6,7,66,different,4,1193.4,v001,same,shape3_no_change6,0,none,9
shape1,no_change2,7,67,different,3,985.6,v001,same,shape1_no_change2,0,none,9
shape8,convex_area1,7,68,same,7,1358.7,v001,different,shape8_convex_area1,0,convex,9
catch_shape,no_change6,7,69,same,9,1429.7,v001,same,catch_shape_no_change6,1,none,9
shape6,concave_area2,7,70,same,9,1319.7,v001,different,shape6_concave_area2,0,concave,9
shape5,concave_nofill_area2,7,71,different,9,1026.5,v001,different,shape5_concave_nofill_area2,1,concave_nofill,9
shape4,concave_nofill_area2,8,72,different,8,1690.2,v001,different,shape4_concave_nofill_area2,1,concave_nofill,9
shape5,concave_area1,8,73,different,3,1961.4,v001,different,shape5_concave_area1,1,concave,9
shape3,concave_nofill_area1,8,74,different,6,1936.9,v001,different,shape3_concave_nofill_area1,1,concave_nofill,9
shape2,concave_area2,8,75,same,8,1739.4,v001,different,shape2_concave_area2,0,concave,9
catch_shape,no_change5,8,76,same,9,1073.4,v001,same,catch_shape_no_change5,1,none,9
shape7,no_change5,8,77,same,9,1007,v001,same,shape7_no_change5,1,none,9
shape8,concave_area1,8,78,same,9,1199.9,v001,different,shape8_concave_area1,0,concave,9
shape1,no_change3,8,79,different,4,1467.3,v001,same,shape1_no_change3,0,none,9
shape6,no_change6,8,80,same,9,1800.4,v001,same,shape6_no_change6,1,none,9
shape6,no_change4,9,81,same,9,1105.1,v001,same,shape6_no_change4,1,none,9
shape5,convex_area2,9,82,different,9,1281,v001,different,shape5_convex_area2,1,convex,9
catch_shape,no_change2,9,83,same,9,1712.7,v001,same,catch_shape_no_change2,1,none,9
shape3,convex_area2,9,84,same,9,1486.8,v001,different,shape3_convex_area2,0,convex,9
shape1,concave_nofill_area2,9,85,same,6,1561.6,v001,different,shape1_concave_nofill_area2,0,concave_nofill,9
shape2,no_change1,9,86,same,7,1979.9,v001,same,shape2_no_change1,1,none,9
shape4,concave_area1,9,87,same,8,3438.3,v001,different,shape4_concave_area1,0,concave,9
shape7,convex_area1,9,88,different,6,954.9,v001,different,shape7_convex_area1,1,convex,9
shape8,no_change5,9,89,same,7,1811,v001,same,shape8_no_change5,1,none,9
shape4,concave_area2,10,90,different,9,1235.7,v001,different,shape4_concave_area2,1,concave,9
shape5,concave_nofill_area1,10,91,different,9,1934.2,v001,different,shape5_concave_nofill_area1,1,concave_nofill,9
shape3,no_change1,10,92,different,8,1419.9,v001,same,shape3_no_change1,0,none,9
shape2,no_change5,10,93,same,7,1094.4,v001,same,shape2_no_change5,1,none,9
shape8,concave_nofill_area1,10,94,different,7,1245.7,v001,different,shape8_concave_nofill_area1,1,concave_nofill,9
shape6,convex_area2,10,95,different,6,1302.6,v001,different,shape6_convex_area2,1,convex,9
shape1,concave_area1,10,96,same,7,1342.3,v001,different,shape1_concave_area1,0,concave,9
shape7,no_change6,10,97,same,9,1408.3,v001,same,shape7_no_change6,1,none,9
catch_shape,change6,10,98,different,9,2287.6,v001,different,catch_shape_change6,1,none,9
shape7,no_change3,11,99,same,9,1451.6,v001,same,shape7_no_change3,1,none,9
shape5,no_change3,11,100,different,6,1949.9,v001,same,shape5_no_change3,0,none,9
shape8,no_change4,11,101,same,7,970.8,v001,same,shape8_no_change4,1,none,9
shape4,convex_area2,11,102,different,7,1104.5,v001,different,shape4_convex_area2,1,convex,9
shape6,convex_area1,11,103,different,9,1051.2,v001,different,shape6_convex_area1,1,convex,9
shape3,no_change5,11,104,same,7,2157.9,v001,same,shape3_no_change5,1,none,9
catch_shape,no_change3,11,105,same,9,1500.6,v001,same,catch_shape_no_change3,1,none,9
shape2,no_change6,11,106,same,8,1061.5,v001,same,shape2_no_change6,1,none,9
shape1,convex_area1,11,107,same,9,1117.3,v001,different,shape1_convex_area1,0,convex,9
shape1,no_change4,0,0,same,9,3838,v001,same,shape1_no_change4,1,none,10
shape2,no_change3,0,1,same,9,4343,v001,same,shape2_no_change3,1,none,10
shape5,no_change2,0,2,different,9,1908,v001,same,shape5_no_change2,0,none,10
shape6,no_change5,0,3,same,8,4199,v001,same,shape6_no_change5,1,none,10
shape3,no_change3,0,4,same,9,2884,v001,same,shape3_no_change3,1,none,10
shape4,no_change3,0,5,different,9,2629,v001,same,shape4_no_change3,0,none,10
shape7,no_change1,0,6,different,7,3178,v001,same,shape7_no_change1,0,none,10
shape8,no_change1,0,7,different,9,3376,v001,same,shape8_no_change1,0,none,10
catch_shape,change4,0,8,different,9,2513,v001,different,catch_shape_change4,1,none,10
shape1,no_change2,1,9,same,9,1723,v001,same,shape1_no_change2,1,none,10
shape2,no_change1,1,10,same,9,2575,v001,same,shape2_no_change1,1,none,10
shape4,no_change5,1,11,different,7,1616,v001,same,shape4_no_change5,0,none,10
shape3,no_change1,1,12,same,9,4008,v001,same,shape3_no_change1,1,none,10
shape6,no_change3,1,13,same,9,1466,v001,same,shape6_no_change3,1,none,10
shape5,concave_area2,1,14,different,7,3409,v001,different,shape5_concave_area2,1,concave,10
shape8,no_change2,1,15,same,9,1420,v001,same,shape8_no_change2,1,none,10
shape7,no_change2,1,16,same,9,3726,v001,same,shape7_no_change2,1,none,10
catch_shape,change2,1,17,different,9,1322,v001,different,catch_shape_change2,1,none,10
shape3,no_change4,2,18,same,9,2053,v001,same,shape3_no_change4,1,none,10
shape6,no_change2,2,19,same,9,1368,v001,same,shape6_no_change2,1,none,10
shape1,no_change3,2,20,same,9,1119,v001,same,shape1_no_change3,1,none,10
shape4,no_change2,2,21,different,7,2905,v001,same,shape4_no_change2,0,none,10
shape5,no_change1,2,22,same,5,1973,v001,same,shape5_no_change1,1,none,10
shape7,no_change4,2,23,same,8,2518,v001,same,shape7_no_change4,1,none,10
catch_shape,no_change2,2,24,same,9,1915,v001,same,catch_shape_no_change2,1,none,10
shape8,no_change3,2,25,same,2,2864,v001,same,shape8_no_change3,1,none,10
shape2,no_change2,2,26,same,9,927,v001,same,shape2_no_change2,1,none,10
shape2,no_change4,3,27,same,9,2445,v001,same,shape2_no_change4,1,none,10
shape5,no_change3,3,28,same,9,1539,v001,same,shape5_no_change3,1,none,10
shape4,no_change6,3,29,different,8,1215,v001,same,shape4_no_change6,0,none,10
shape1,no_change6,3,30,same,6,2885,v001,same,shape1_no_change6,1,none,10
shape3,no_change6,3,31,same,9,1231,v001,same,shape3_no_change6,1,none,10
shape8,no_change4,3,32,same,9,1828,v001,same,shape8_no_change4,1,none,10
catch_shape,no_change1,3,33,same,9,849,v001,same,catch_shape_no_change1,1,none,10
shape6,no_change4,3,34,same,9,655,v001,same,shape6_no_change4,1,none,10
shape7,no_change6,3,35,same,7,1200,v001,same,shape7_no_change6,1,none,10
shape1,no_change1,4,36,same,7,1542,v001,same,shape1_no_change1,1,none,10
shape2,no_change5,4,37,same,7,1884,v001,same,shape2_no_change5,1,none,10
shape3,no_change2,4,38,same,8,1301,v001,same,shape3_no_change2,1,none,10
shape4,no_change4,4,39,different,8,1019,v001,same,shape4_no_change4,0,none,10
shape5,no_change4,4,40,same,8,698,v001,same,shape5_no_change4,1,none,10
shape6,no_change1,4,41,same,8,764,v001,same,shape6_no_change1,1,none,10
shape8,concave_area1,4,42,same,8,1204,v001,different,shape8_concave_area1,0,concave,10
shape7,no_change5,4,43,different,6,816,v001,same,shape7_no_change5,0,none,10
catch_shape,no_change3,4,44,same,9,634,v001,same,catch_shape_no_change3,1,none,10
shape4,no_change1,5,45,same,9,1542,v001,same,shape4_no_change1,1,none,10
shape3,concave_area1,5,46,same,9,925,v001,different,shape3_concave_area1,0,concave,10
shape2,no_change6,5,47,different,6,980,v001,same,shape2_no_change6,0,none,10
shape6,no_change6,5,48,same,8,638,v001,same,shape6_no_change6,1,none,10
shape5,no_change6,5,49,same,9,1745,v001,same,shape5_no_change6,1,none,10
catch_shape,no_change5,5,50,same,9,1655,v001,same,catch_shape_no_change5,1,none,10
shape1,concave_area2,5,51,different,7,1591,v001,different,shape1_concave_area2,1,concave,10
shape7,concave_area1,5,52,same,9,1442,v001,different,shape7_concave_area1,0,concave,10
shape8,no_change6,5,53,same,9,572,v001,same,shape8_no_change6,1,none,10
shape3,convex_area1,6,54,same,9,1313,v001,different,shape3_convex_area1,0,convex,10
shape2,concave_area2,6,55,different,9,675,v001,different,shape2_concave_area2,1,concave,10
shape1,concave_area1,6,56,same,9,552,v001,different,shape1_concave_area1,0,concave,10
shape5,no_change5,6,57,same,9,531,v001,same,shape5_no_change5,1,none,10
shape6,concave_area1,6,58,same,8,1462,v001,different,shape6_concave_area1,0,concave,10
shape4,concave_nofill_area1,6,59,different,7,1201,v001,different,shape4_concave_nofill_area1,1,concave_nofill,10
shape7,no_change3,6,60,same,9,2260,v001,same,shape7_no_change3,1,none,10
shape8,concave_nofill_area1,6,61,different,6,1850,v001,different,shape8_concave_nofill_area1,1,concave_nofill,10
catch_shape,no_change4,6,62,same,9,733,v001,same,catch_shape_no_change4,1,none,10
shape1,no_change5,7,63,same,9,508,v001,same,shape1_no_change5,1,none,10
shape3,no_change5,7,64,same,9,533,v001,same,shape3_no_change5,1,none,10
shape2,concave_area1,7,65,different,9,644,v001,different,shape2_concave_area1,1,concave,10
shape4,convex_area2,7,66,different,5,1533,v001,different,shape4_convex_area2,1,convex,10
shape5,convex_area2,7,67,same,8,700,v001,different,shape5_convex_area2,0,convex,10
shape6,convex_area1,7,68,different,7,1094,v001,different,shape6_convex_area1,1,convex,10
shape7,concave_nofill_area1,7,69,same,8,1031,v001,different,shape7_concave_nofill_area1,0,concave_nofill,10
catch_shape,change1,7,70,different,9,672,v001,different,catch_shape_change1,1,none,10
shape8,no_change5,7,71,same,8,526,v001,same,shape8_no_change5,1,none,10
shape2,convex_area1,8,72,same,8,632,v001,different,shape2_convex_area1,0,convex,10
shape3,concave_area2,8,73,different,7,1009,v001,different,shape3_concave_area2,1,concave,10
shape1,convex_area1,8,74,different,9,634,v001,different,shape1_convex_area1,1,convex,10
shape6,concave_area2,8,75,different,6,1260,v001,different,shape6_concave_area2,1,concave,10
shape5,concave_nofill_area1,8,76,same,9,541,v001,different,shape5_concave_nofill_area1,0,concave_nofill,10
shape7,convex_area1,8,77,same,9,634,v001,different,shape7_convex_area1,0,convex,10
shape4,concave_area1,8,78,same,7,793,v001,different,shape4_concave_area1,0,concave,10
shape8,concave_area2,8,79,different,9,603,v001,different,shape8_concave_area2,1,concave,10
catch_shape,no_change6,8,80,same,9,498,v001,same,catch_shape_no_change6,1,none,10
shape4,convex_area1,9,81,different,9,955,v001,different,shape4_convex_area1,1,convex,10
shape1,concave_nofill_area1,9,82,same,9,643,v001,different,shape1_concave_nofill_area1,0,concave_nofill,10
shape2,concave_nofill_area1,9,83,same,9,486,v001,different,shape2_concave_nofill_area1,0,concave_nofill,10
shape3,convex_area2,9,84,same,7,617,v001,different,shape3_convex_area2,0,convex,10
shape5,convex_area1,9,85,same,9,1091,v001,different,shape5_convex_area1,0,convex,10
shape6,concave_nofill_area1,9,86,same,9,595,v001,different,shape6_concave_nofill_area1,0,concave_nofill,10
shape7,concave_nofill_area2,9,87,same,4,1351,v001,different,shape7_concave_nofill_area2,0,concave_nofill,10
shape8,convex_area2,9,88,different,7,725,v001,different,shape8_convex_area2,1,convex,10
catch_shape,change6,9,89,different,9,569,v001,different,catch_shape_change6,1,none,10
shape1,concave_nofill_area2,10,90,same,9,590,v001,different,shape1_concave_nofill_area2,0,concave_nofill,10
shape3,concave_nofill_area1,10,91,same,9,741,v001,different,shape3_concave_nofill_area1,0,concave_nofill,10
shape2,concave_nofill_area2,10,92,different,8,730,v001,different,shape2_concave_nofill_area2,1,concave_nofill,10
shape6,concave_nofill_area2,10,93,same,9,575,v001,different,shape6_concave_nofill_area2,0,concave_nofill,10
shape4,concave_nofill_area2,10,94,different,7,706,v001,different,shape4_concave_nofill_area2,1,concave_nofill,10
shape5,concave_area1,10,95,same,8,501,v001,different,shape5_concave_area1,0,concave,10
shape7,convex_area2,10,96,same,9,627,v001,different,shape7_convex_area2,0,convex,10
shape8,convex_area1,10,97,same,9,1335,v001,different,shape8_convex_area1,0,convex,10
catch_shape,change3,10,98,different,9,608,v001,different,catch_shape_change3,1,none,10
shape1,convex_area2,11,99,different,7,992,v001,different,shape1_convex_area2,1,convex,10
shape2,convex_area2,11,100,different,8,2502,v001,different,shape2_convex_area2,1,convex,10
shape6,convex_area2,11,101,same,8,975,v001,different,shape6_convex_area2,0,convex,10
shape3,concave_nofill_area2,11,102,same,9,2032,v001,different,shape3_concave_nofill_area2,0,concave_nofill,10
shape4,concave_area2,11,103,different,7,1447,v001,different,shape4_concave_area2,1,concave,10
shape5,concave_nofill_area2,11,104,same,7,1343,v001,different,shape5_concave_nofill_area2,0,concave_nofill,10
shape7,concave_area2,11,105,same,7,1050,v001,different,shape7_concave_area2,0,concave,10
catch_shape,change5,11,106,different,9,537,v001,different,catch_shape_change5,1,none,10
shape8,concave_nofill_area2,11,107,same,9,496,v001,different,shape8_concave_nofill_area2,0,concave_nofill,10
shape5,no_change1,0,0,same,8,6689.1,v001,same,shape5_no_change1,1,none,11
shape4,concave_nofill_area2,0,1,different,9,3160.5,v001,different,shape4_concave_nofill_area2,1,concave_nofill,11
catch_shape,change4,0,2,different,9,2817.5,v001,different,catch_shape_change4,1,none,11
shape6,concave_nofill_area2,0,3,different,5,3433.5,v001,different,shape6_concave_nofill_area2,1,concave_nofill,11
shape3,no_change3,0,4,same,8,2967.8,v001,same,shape3_no_change3,1,none,11
shape8,convex_area1,0,5,same,7,2416.3,v001,different,shape8_convex_area1,0,convex,11
shape2,no_change1,0,6,same,5,3414.2,v001,same,shape2_no_change1,1,none,11
shape7,no_change1,0,7,different,1,2845.7,v001,same,shape7_no_change1,0,none,11
shape1,no_change6,0,8,same,8,2443.8,v001,same,shape1_no_change6,1,none,11
shape3,no_change6,1,9,same,6,3447.7,v001,same,shape3_no_change6,1,none,11
shape2,concave_nofill_area1,1,10,different,9,1560.9,v001,different,shape2_concave_nofill_area1,1,concave_nofill,11
shape6,no_change4,1,11,same,8,2771.9,v001,same,shape6_no_change4,1,none,11
catch_shape,no_change1,1,12,same,9,2282.2,v001,same,catch_shape_no_change1,1,none,11
shape4,no_change4,1,13,same,9,3966.7,v001,same,shape4_no_change4,1,none,11
shape1,no_change3,1,14,same,8,1777.1,v001,same,shape1_no_change3,1,none,11
shape7,no_change3,1,15,same,8,3000.5,v001,same,shape7_no_change3,1,none,11
shape5,no_change6,1,16,same,8,3383.9,v001,same,shape5_no_change6,1,none,11
shape8,no_change3,1,17,same,8,2385.4,v001,same,shape8_no_change3,1,none,11
shape1,convex_area2,2,18,same,8,2164.6,v001,different,shape1_convex_area2,0,convex,11
shape5,no_change2,2,19,same,7,2623.6,v001,same,shape5_no_change2,1,none,11
shape2,convex_area2,2,20,different,9,2065.9,v001,different,shape2_convex_area2,1,convex,11
shape4,convex_area2,2,21,different,9,3627,v001,different,shape4_convex_area2,1,convex,11
shape3,no_change4,2,22,same,8,3265.5,v001,same,shape3_no_change4,1,none,11
shape7,convex_area2,2,23,different,8,2076.1,v001,different,shape7_convex_area2,1,convex,11
shape8,no_change6,2,24,same,8,1782.8,v001,same,shape8_no_change6,1,none,11
shape6,no_change2,2,25,same,8,3682.6,v001,same,shape6_no_change2,1,none,11
catch_shape,no_change2,2,26,same,9,1678.6,v001,same,catch_shape_no_change2,1,none,11
shape1,concave_area2,3,27,different,7,2093,v001,different,shape1_concave_area2,1,concave,11
shape7,concave_nofill_area2,3,28,different,9,3409.3,v001,different,shape7_concave_nofill_area2,1,concave_nofill,11
shape3,convex_area1,3,29,same,8,2518.1,v001,different,shape3_convex_area1,0,convex,11
shape2,no_change4,3,30,same,9,2835.4,v001,same,shape2_no_change4,1,none,11
shape6,convex_area1,3,31,same,8,2179.8,v001,different,shape6_convex_area1,0,convex,11
shape4,concave_area1,3,32,different,9,1775.7,v001,different,shape4_concave_area1,1,concave,11
shape5,convex_area2,3,33,different,9,4125.7,v001,different,shape5_convex_area2,1,convex,11
catch_shape,no_change3,3,34,different,7,6577.8,v001,same,catch_shape_no_change3,0,none,11
shape8,convex_area2,3,35,different,9,1895.7,v001,different,shape8_convex_area2,1,convex,11
shape2,no_change6,4,36,same,7,3184.1,v001,same,shape2_no_change6,1,none,11
shape1,concave_area1,4,37,different,6,2360.6,v001,different,shape1_concave_area1,1,concave,11
shape6,no_change6,4,38,same,8,2383.4,v001,same,shape6_no_change6,1,none,11
shape8,no_change2,4,39,same,8,2192.9,v001,same,shape8_no_change2,1,none,11
shape3,no_change2,4,40,same,8,1467.6,v001,same,shape3_no_change2,1,none,11
catch_shape,change3,4,41,different,9,1691.5,v001,different,catch_shape_change3,1,none,11
shape5,convex_area1,4,42,different,7,4869.1,v001,different,shape5_convex_area1,1,convex,11
shape4,no_change3,4,43,same,8,2692.2,v001,same,shape4_no_change3,1,none,11
shape7,no_change2,4,44,same,8,2100,v001,same,shape7_no_change2,1,none,11
shape4,concave_nofill_area1,5,45,different,4,2242.4,v001,different,shape4_concave_nofill_area1,1,concave_nofill,11
shape2,concave_nofill_area2,5,46,different,6,2342.6,v001,different,shape2_concave_nofill_area2,1,concave_nofill,11
shape5,concave_nofill_area1,5,47,different,9,688.3,v001,different,shape5_concave_nofill_area1,1,concave_nofill,11
shape3,concave_area1,5,48,different,2,1668.9,v001,different,shape3_concave_area1,1,concave,11
catch_shape,no_change4,5,49,same,9,2530.4,v001,same,catch_shape_no_change4,1,none,11
shape1,convex_area1,5,50,same,8,2926.5,v001,different,shape1_convex_area1,0,convex,11
shape6,no_change1,5,51,same,5,1678.3,v001,same,shape6_no_change1,1,none,11
shape8,no_change4,5,52,different,2,1629.5,v001,same,shape8_no_change4,0,none,11
shape7,concave_area2,5,53,different,3,3025.2,v001,different,shape7_concave_area2,1,concave,11
shape5,no_change5,6,54,same,8,1722.6,v001,same,shape5_no_change5,1,none,11
shape4,no_change6,6,55,same,8,1906.6,v001,same,shape4_no_change6,1,none,11
shape8,concave_nofill_area2,6,56,different,9,1156.5,v001,different,shape8_concave_nofill_area2,1,concave_nofill,11
shape3,concave_area2,6,57,same,3,1451.9,v001,different,shape3_concave_area2,0,concave,11
shape1,concave_nofill_area1,6,58,different,3,1320.9,v001,different,shape1_concave_nofill_area1,1,concave_nofill,11
catch_shape,change6,6,59,different,9,1530.1,v001,different,catch_shape_change6,1,none,11
shape6,concave_area2,6,60,different,9,1475.5,v001,different,shape6_concave_area2,1,concave,11
shape7,no_change5,6,61,same,4,1079.9,v001,same,shape7_no_change5,1,none,11
shape2,concave_area2,6,62,different,9,927.7,v001,different,shape2_concave_area2,1,concave,11
shape7,no_change4,7,63,same,7,1304.7,v001,same,shape7_no_change4,1,none,11
shape1,no_change2,7,64,different,2,2107.3,v001,same,shape1_no_change2,0,none,11
catch_shape,change1,7,65,different,9,2097.1,v001,different,catch_shape_change1,1,none,11
shape2,no_change2,7,66,same,8,1353,v001,same,shape2_no_change2,1,none,11
shape8,no_change1,7,67,same,8,2721.2,v001,same,shape8_no_change1,1,none,11
shape6,concave_area1,7,68,different,6,2478.7,v001,different,shape6_concave_area1,1,concave,11
shape3,concave_nofill_area2,7,69,different,9,1286.2,v001,different,shape3_concave_nofill_area2,1,concave_nofill,11
shape4,no_change5,7,70,same,9,3669.6,v001,same,shape4_no_change5,1,none,11
shape5,concave_area1,7,71,same,6,3485.5,v001,different,shape5_concave_area1,0,concave,11
