shape,changeType,blockNum,trialID,response,confidence,rt,experimentVersion,correctAnswer,fullShapeName,responded_correctly,analysisChangeType,subject
shape6,no_change1,0,0,same,8,5088.3,control,same,shape6_no_change1,1,none,1
catch_shape,change1,0,1,different,9,3265.9,control,different,catch_shape_change1,1,none,1
shape4,no_change1,0,2,same,9,2182.2,control,same,shape4_no_change1,1,none,1
shape5,no_change4,0,3,same,9,3093.5,control,same,shape5_no_change4,1,none,1
shape1,no_change4,0,4,same,9,1870.6,control,same,shape1_no_change4,1,none,1
shape8,no_change5,0,5,same,9,1741.4,control,same,shape8_no_change5,1,none,1
shape3,no_change3,0,6,same,9,2165.9,control,same,shape3_no_change3,1,none,1
shape2,no_change6,0,7,same,9,2702,control,same,shape2_no_change6,1,none,1
shape7,concave_nofill_area1,0,8,different,9,3021.6,control,different,shape7_concave_nofill_area1,1,concave_nofill,1
shape3,convex_area2,1,9,same,9,1638.3,control,different,shape3_convex_area2,0,convex,1
shape2,convex_area2,1,10,different,9,2908.2,control,different,shape2_convex_area2,1,convex,1
shape8,concave_area1,1,11,different,9,2038.4,control,different,shape8_concave_area1,1,concave,1
shape5,concave_area1,1,12,different,7,3116.3,control,different,shape5_concave_area1,1,concave,1
shape1,convex_area2,1,13,different,9,1663.1,control,different,shape1_convex_area2,1,convex,1
shape4,no_change4,1,14,same,9,2033,control,same,shape4_no_change4,1,none,1
shape6,concave_nofill_area2,1,15,different,9,1526.4,control,different,shape6_concave_nofill_area2,1,concave_nofill,1
shape7,convex_area2,1,16,different,9,2454.5,control,different,shape7_convex_area2,1,convex,1
catch_shape,change2,1,17,different,9,1509.9,control,different,catch_shape_change2,1,none,1
shape1,no_change1,2,18,same,8,2758,control,same,shape1_no_change1,1,none,1
shape7,no_change4,2,19,different,5,4334.3,control,same,shape7_no_change4,0,none,1
shape6,concave_area2,2,20,different,8,2174.7,control,different,shape6_concave_area2,1,concave,1
catch_shape,no_change2,2,21,same,9,1710.7,control,same,catch_shape_no_change2,1,none,1
shape2,concave_nofill_area2,2,22,different,8,1861.8,control,different,shape2_concave_nofill_area2,1,concave_nofill,1
shape5,concave_nofill_area1,2,23,different,9,2503.4,control,different,shape5_concave_nofill_area1,1,concave_nofill,1
shape3,no_change6,2,24,same,9,1702.9,control,same,shape3_no_change6,1,none,1
shape4,no_change3,2,25,same,9,2151.8,control,same,shape4_no_change3,1,none,1
shape8,no_change4,2,26,same,9,1571.5,control,same,shape8_no_change4,1,none,1
shape1,no_change6,3,27,same,9,2189.6,control,same,shape1_no_change6,1,none,1
shape2,no_change3,3,28,same,9,4934.3,control,same,shape2_no_change3,1,none,1
shape6,no_change2,3,29,same,7,3147.7,control,same,shape6_no_change2,1,none,1
shape7,concave_area2,3,30,different,9,4808.6,control,different,shape7_concave_area2,1,concave,1
shape5,no_change5,3,31,same,8,3470.4,control,same,shape5_no_change5,1,none,1
shape8,no_change3,3,32,different,8,2733.4,control,same,shape8_no_change3,0,none,1
catch_shape,no_change5,3,33,same,9,1539.7,control,same,catch_shape_no_change5,1,none,1
shape3,no_change2,3,34,same,8,4026,control,same,shape3_no_change2,1,none,1
shape4,concave_area1,3,35,different,9,3966.5,control,different,shape4_concave_area1,1,concave,1
shape1,no_change5,4,36,same,9,98590.5,control,same,shape1_no_change5,1,none,1
shape8,concave_area2,4,37,different,9,2351.1,control,different,shape8_concave_area2,1,concave,1
shape7,convex_area1,4,38,different,9,2210.5,control,different,shape7_convex_area1,1,convex,1
shape2,convex_area1,4,39,different,9,1797.5,control,different,shape2_convex_area1,1,convex,1
shape4,convex_area2,4,40,different,8,2105.5,control,different,shape4_convex_area2,1,convex,1
catch_shape,change3,4,41,different,9,2604.7,control,different,catch_shape_change3,1,none,1
shape3,no_change1,4,42,same,9,1663.1,control,same,shape3_no_change1,1,none,1
shape5,no_change1,4,43,same,9,2474.1,control,same,shape5_no_change1,1,none,1
shape6,convex_area1,4,44,different,9,1835.8,control,different,shape6_convex_area1,1,convex,1
shape2,no_change2,5,45,same,8,1784.7,control,same,shape2_no_change2,1,none,1
shape3,convex_area1,5,46,different,7,2256.8,control,different,shape3_convex_area1,1,convex,1
shape4,convex_area1,5,47,different,9,3567.7,control,different,shape4_convex_area1,1,convex,1
shape7,no_change6,5,48,different,6,2098.6,control,same,shape7_no_change6,0,none,1
shape5,concave_area2,5,49,different,9,1816.2,control,different,shape5_concave_area2,1,concave,1
catch_shape,no_change1,5,50,same,9,3810.4,control,same,catch_shape_no_change1,1,none,1
shape6,no_change4,5,51,same,9,2544.6,control,same,shape6_no_change4,1,none,1
shape8,concave_nofill_area1,5,52,different,9,1939.5,control,different,shape8_concave_nofill_area1,1,concave_nofill,1
shape1,concave_area1,5,53,different,7,2587.6,control,different,shape1_concave_area1,1,concave,1
shape6,no_change6,6,54,same,9,2703.5,control,same,shape6_no_change6,1,none,1
shape5,no_change6,6,55,different,6,2174.5,control,same,shape5_no_change6,0,none,1
shape4,concave_nofill_area2,6,56,different,9,2162.3,control,different,shape4_concave_nofill_area2,1,concave_nofill,1
shape3,no_change5,6,57,different,6,2255.8,control,same,shape3_no_change5,0,none,1
shape2,no_change1,6,58,same,7,1727.8,control,same,shape2_no_change1,1,none,1
shape8,no_change1,6,59,same,9,1611.8,control,same,shape8_no_change1,1,none,1
catch_shape,no_change4,6,60,same,9,1707.5,control,same,catch_shape_no_change4,1,none,1
shape1,no_change2,6,61,same,9,10214.1,control,same,shape1_no_change2,1,none,1
shape7,no_change3,6,62,different,6,3134.5,control,same,shape7_no_change3,0,none,1
shape3,concave_nofill_area1,7,63,different,9,2519.8,control,different,shape3_concave_nofill_area1,1,concave_nofill,1
shape4,concave_nofill_area1,7,64,different,9,3110,control,different,shape4_concave_nofill_area1,1,concave_nofill,1
shape2,no_change5,7,65,different,7,1910.8,control,same,shape2_no_change5,0,none,1
shape6,concave_nofill_area1,7,66,different,9,1782.7,control,different,shape6_concave_nofill_area1,1,concave_nofill,1
shape1,concave_area2,7,67,different,9,3352.7,control,different,shape1_concave_area2,1,concave,1
shape8,convex_area1,7,68,different,9,2156.2,control,different,shape8_convex_area1,1,convex,1
shape5,no_change2,7,69,same,9,3932.9,control,same,shape5_no_change2,1,none,1
shape7,no_change2,7,70,same,9,1622.8,control,same,shape7_no_change2,1,none,1
catch_shape,no_change3,7,71,same,9,2329.4,control,same,catch_shape_no_change3,1,none,1
shape1,concave_nofill_area2,8,72,same,7,45251.1,control,different,shape1_concave_nofill_area2,0,concave_nofill,1
shape8,concave_nofill_area2,8,73,different,9,1525.6,control,different,shape8_concave_nofill_area2,1,concave_nofill,1
shape6,no_change3,8,74,same,9,802.9,control,same,shape6_no_change3,1,none,1
shape7,no_change5,8,75,same,9,869.3,control,same,shape7_no_change5,1,none,1
shape2,concave_nofill_area1,8,76,different,9,1430,control,different,shape2_concave_nofill_area1,1,concave_nofill,1
shape3,concave_nofill_area2,8,77,different,9,1648.5,control,different,shape3_concave_nofill_area2,1,concave_nofill,1
catch_shape,change4,8,78,same,1,37033.6,control,different,catch_shape_change4,0,none,1
shape5,concave_nofill_area2,8,79,different,9,2102.9,control,different,shape5_concave_nofill_area2,1,concave_nofill,1
shape4,concave_area2,8,80,different,9,2045.2,control,different,shape4_concave_area2,1,concave,1
shape4,no_change5,9,81,same,9,2219.3,control,same,shape4_no_change5,1,none,1
shape3,concave_area1,9,82,different,8,1850.9,control,different,shape3_concave_area1,1,concave,1
shape5,convex_area1,9,83,different,9,1591.5,control,different,shape5_convex_area1,1,convex,1
shape1,no_change3,9,84,same,7,1806.1,control,same,shape1_no_change3,1,none,1
shape6,convex_area2,9,85,different,9,2361.3,control,different,shape6_convex_area2,1,convex,1
shape8,convex_area2,9,86,different,9,2097.3,control,different,shape8_convex_area2,1,convex,1
shape7,no_change1,9,87,different,6,4500.1,control,same,shape7_no_change1,0,none,1
catch_shape,change6,9,88,different,9,3054.8,control,different,catch_shape_change6,1,none,1
shape2,no_change4,9,89,same,8,2416.2,control,same,shape2_no_change4,1,none,1
shape5,no_change3,10,90,same,9,2261.8,control,same,shape5_no_change3,1,none,1
shape4,no_change6,10,91,different,6,2309.5,control,same,shape4_no_change6,0,none,1
catch_shape,no_change6,10,92,same,9,2973.6,control,same,catch_shape_no_change6,1,none,1
shape6,concave_area1,10,93,different,9,1462.8,control,different,shape6_concave_area1,1,concave,1
shape3,no_change4,10,94,same,7,1538.5,control,same,shape3_no_change4,1,none,1
shape8,no_change6,10,95,same,9,1230.6,control,same,shape8_no_change6,1,none,1
shape7,concave_nofill_area2,10,96,different,9,2830.2,control,different,shape7_concave_nofill_area2,1,concave_nofill,1
shape2,concave_area1,10,97,different,9,2862.5,control,different,shape2_concave_area1,1,concave,1
shape1,concave_nofill_area1,10,98,different,9,2518.1,control,different,shape1_concave_nofill_area1,1,concave_nofill,1
shape7,concave_area1,11,99,different,9,2841.1,control,different,shape7_concave_area1,1,concave,1
shape6,no_change5,11,100,same,9,1634.3,control,same,shape6_no_change5,1,none,1
shape4,no_change2,11,101,same,6,5026.9,control,same,shape4_no_change2,1,none,1
shape8,no_change2,11,102,same,9,1470.3,control,same,shape8_no_change2,1,none,1
shape3,concave_area2,11,103,different,9,1739.4,control,different,shape3_concave_area2,1,concave,1
catch_shape,change5,11,104,different,9,2014,control,different,catch_shape_change5,1,none,1
shape2,concave_area2,11,105,different,9,1966.1,control,different,shape2_concave_area2,1,concave,1
shape1,convex_area1,11,106,different,9,2310.8,control,different,shape1_convex_area1,1,convex,1
shape5,convex_area2,11,107,different,9,2700.2,control,different,shape5_convex_area2,1,convex,1
shape7,no_change1,0,0,same,9,3688,control,same,shape7_no_change1,1,none,2
shape8,concave_nofill_area2,0,1,same,6,2591.7,control,different,shape8_concave_nofill_area2,0,concave_nofill,2
shape1,concave_area2,0,2,same,5,2202.9,control,different,shape1_concave_area2,0,concave,2
shape6,no_change4,0,3,same,7,1914.5,control,same,shape6_no_change4,1,none,2
shape2,concave_area1,0,4,different,7,1963.5,control,different,shape2_concave_area1,1,concave,2
shape3,no_change6,0,5,same,6,1967.3,control,same,shape3_no_change6,1,none,2
catch_shape,no_change1,0,6,same,9,2020,control,same,catch_shape_no_change1,1,none,2
shape4,convex_area2,0,7,different,4,2030.4,control,different,shape4_convex_area2,1,convex,2
shape5,no_change1,0,8,same,7,3485.8,control,same,shape5_no_change1,1,none,2
shape5,no_change2,1,9,different,4,2826.6,control,same,shape5_no_change2,0,none,2
shape2,concave_area2,1,10,different,9,3737.8,control,different,shape2_concave_area2,1,concave,2
shape6,no_change5,1,11,same,7,2091.2,control,same,shape6_no_change5,1,none,2
shape3,concave_area2,1,12,same,9,2456.7,control,different,shape3_concave_area2,0,concave,2
shape7,no_change2,1,13,same,7,1925.8,control,same,shape7_no_change2,1,none,2
shape4,no_change6,1,14,same,9,1620.4,control,same,shape4_no_change6,1,none,2
shape1,no_change2,1,15,same,8,1476.9,control,same,shape1_no_change2,1,none,2
shape8,concave_area1,1,16,same,7,1854.8,control,different,shape8_concave_area1,0,concave,2
catch_shape,change5,1,17,different,9,1899.7,control,different,catch_shape_change5,1,none,2
shape4,no_change1,2,18,same,6,2071.2,control,same,shape4_no_change1,1,none,2
shape3,no_change5,2,19,same,8,2294.9,control,same,shape3_no_change5,1,none,2
shape2,no_change1,2,20,different,2,2793.8,control,same,shape2_no_change1,0,none,2
catch_shape,change1,2,21,different,9,1975.8,control,different,catch_shape_change1,1,none,2
shape5,no_change5,2,22,same,9,1925.4,control,same,shape5_no_change5,1,none,2
shape8,no_change3,2,23,same,9,1615.5,control,same,shape8_no_change3,1,none,2
shape6,no_change3,2,24,same,9,2067.4,control,same,shape6_no_change3,1,none,2
shape7,no_change3,2,25,same,8,2119,control,same,shape7_no_change3,1,none,2
shape1,convex_area2,2,26,different,7,2709.6,control,different,shape1_convex_area2,1,convex,2
shape5,convex_area2,3,27,same,5,3282.1,control,different,shape5_convex_area2,0,convex,2
catch_shape,no_change2,3,28,same,9,1456.1,control,same,catch_shape_no_change2,1,none,2
shape2,convex_area1,3,29,different,9,2371.6,control,different,shape2_convex_area1,1,convex,2
shape6,concave_area2,3,30,same,4,2441.2,control,different,shape6_concave_area2,0,concave,2
shape3,concave_nofill_area2,3,31,different,7,2325.7,control,different,shape3_concave_nofill_area2,1,concave_nofill,2
shape1,concave_nofill_area2,3,32,same,5,2413.1,control,different,shape1_concave_nofill_area2,0,concave_nofill,2
shape8,concave_area2,3,33,different,7,2549.8,control,different,shape8_concave_area2,1,concave,2
shape4,convex_area1,3,34,different,9,1461.9,control,different,shape4_convex_area1,1,convex,2
shape7,concave_nofill_area1,3,35,different,9,1850.1,control,different,shape7_concave_nofill_area1,1,concave_nofill,2
shape7,convex_area2,4,36,same,9,1755.1,control,different,shape7_convex_area2,0,convex,2
shape6,concave_nofill_area2,4,37,different,9,1463.8,control,different,shape6_concave_nofill_area2,1,concave_nofill,2
shape3,no_change4,4,38,same,8,1504.9,control,same,shape3_no_change4,1,none,2
shape4,concave_nofill_area2,4,39,different,9,1760.8,control,different,shape4_concave_nofill_area2,1,concave_nofill,2
shape1,concave_area1,4,40,same,4,2131,control,different,shape1_concave_area1,0,concave,2
catch_shape,no_change3,4,41,same,9,4036.9,control,same,catch_shape_no_change3,1,none,2
shape2,convex_area2,4,42,different,7,2081.6,control,different,shape2_convex_area2,1,convex,2
shape5,no_change3,4,43,same,9,2021.7,control,same,shape5_no_change3,1,none,2
shape8,no_change2,4,44,same,9,1861.6,control,same,shape8_no_change2,1,none,2
shape8,no_change1,5,45,same,9,1597.2,control,same,shape8_no_change1,1,none,2
shape2,concave_nofill_area2,5,46,different,3,2070,control,different,shape2_concave_nofill_area2,1,concave_nofill,2
catch_shape,change6,5,47,different,9,1756.9,control,different,catch_shape_change6,1,none,2
shape6,convex_area2,5,48,different,9,2007.9,control,different,shape6_convex_area2,1,convex,2
shape4,no_change4,5,49,same,9,1755.5,control,same,shape4_no_change4,1,none,2
shape3,no_change1,5,50,same,7,1626.7,control,same,shape3_no_change1,1,none,2
shape5,concave_nofill_area2,5,51,different,4,2281,control,different,shape5_concave_nofill_area2,1,concave_nofill,2
shape7,no_change4,5,52,same,9,1423.8,control,same,shape7_no_change4,1,none,2
shape1,convex_area1,5,53,different,6,2503.3,control,different,shape1_convex_area1,1,convex,2
shape3,no_change2,6,54,same,6,2617.1,control,same,shape3_no_change2,1,none,2
shape5,convex_area1,6,55,different,8,1662.5,control,different,shape5_convex_area1,1,convex,2
shape1,concave_nofill_area1,6,56,same,9,1231,control,different,shape1_concave_nofill_area1,0,concave_nofill,2
shape4,concave_area2,6,57,different,9,2296.1,control,different,shape4_concave_area2,1,concave,2
shape8,no_change5,6,58,different,3,1615.4,control,same,shape8_no_change5,0,none,2
shape2,no_change2,6,59,different,2,5511.3,control,same,shape2_no_change2,0,none,2
shape6,no_change2,6,60,same,3,3500.7,control,same,shape6_no_change2,1,none,2
shape7,no_change5,6,61,same,2,1939.9,control,same,shape7_no_change5,1,none,2
catch_shape,no_change4,6,62,same,9,3307.9,control,same,catch_shape_no_change4,1,none,2
shape2,no_change3,7,63,same,7,3133,control,same,shape2_no_change3,1,none,2
shape1,no_change3,7,64,same,7,2501.7,control,same,shape1_no_change3,1,none,2
shape7,no_change6,7,65,same,4,2214.4,control,same,shape7_no_change6,1,none,2
shape3,convex_area1,7,66,different,8,3536.6,control,different,shape3_convex_area1,1,convex,2
catch_shape,change2,7,67,different,9,1822.3,control,different,catch_shape_change2,1,none,2
shape4,no_change2,7,68,same,9,1208.4,control,same,shape4_no_change2,1,none,2
shape5,concave_nofill_area1,7,69,different,8,1921.6,control,different,shape5_concave_nofill_area1,1,concave_nofill,2
shape6,concave_nofill_area1,7,70,different,3,3587.9,control,different,shape6_concave_nofill_area1,1,concave_nofill,2
shape8,concave_nofill_area1,7,71,different,7,2202.5,control,different,shape8_concave_nofill_area1,1,concave_nofill,2
shape6,concave_area1,8,72,different,4,2437.2,control,different,shape6_concave_area1,1,concave,2
shape3,concave_nofill_area1,8,73,different,7,1828.7,control,different,shape3_concave_nofill_area1,1,concave_nofill,2
shape1,no_change1,8,74,same,4,2621.3,control,same,shape1_no_change1,1,none,2
shape7,concave_area2,8,75,same,6,1978,control,different,shape7_concave_area2,0,concave,2
shape5,no_change6,8,76,same,7,2693.9,control,same,shape5_no_change6,1,none,2
shape2,concave_nofill_area1,8,77,different,9,1538.1,control,different,shape2_concave_nofill_area1,1,concave_nofill,2
shape8,convex_area2,8,78,different,9,1498.8,control,different,shape8_convex_area2,1,convex,2
catch_shape,change4,8,79,different,9,2005.9,control,different,catch_shape_change4,1,none,2
shape4,no_change3,8,80,different,3,1882.4,control,same,shape4_no_change3,0,none,2
shape6,no_change1,9,81,same,3,1528.9,control,same,shape6_no_change1,1,none,2
shape1,no_change5,9,82,same,9,1636.2,control,same,shape1_no_change5,1,none,2
shape2,no_change4,9,83,same,9,1349.4,control,same,shape2_no_change4,1,none,2
shape8,convex_area1,9,84,different,5,2590.5,control,different,shape8_convex_area1,1,convex,2
shape7,convex_area1,9,85,different,4,2306.6,control,different,shape7_convex_area1,1,convex,2
shape5,no_change4,9,86,same,9,1260.5,control,same,shape5_no_change4,1,none,2
shape4,concave_area1,9,87,different,9,1100,control,different,shape4_concave_area1,1,concave,2
catch_shape,no_change5,9,88,same,9,1952.5,control,same,catch_shape_no_change5,1,none,2
shape3,convex_area2,9,89,different,1,3014.9,control,different,shape3_convex_area2,1,convex,2
shape3,no_change3,10,90,same,1,2548.3,control,same,shape3_no_change3,1,none,2
shape5,concave_area1,10,91,different,1,1517.2,control,different,shape5_concave_area1,1,concave,2
shape6,no_change6,10,92,same,9,3417.5,control,same,shape6_no_change6,1,none,2
shape8,no_change4,10,93,same,8,1856,control,same,shape8_no_change4,1,none,2
shape4,concave_nofill_area1,10,94,different,9,1603.8,control,different,shape4_concave_nofill_area1,1,concave_nofill,2
shape2,no_change5,10,95,same,1,1601.5,control,same,shape2_no_change5,1,none,2
shape7,concave_nofill_area2,10,96,different,9,1757,control,different,shape7_concave_nofill_area2,1,concave_nofill,2
shape1,no_change6,10,97,same,8,2209.4,control,same,shape1_no_change6,1,none,2
catch_shape,no_change6,10,98,same,9,2054.4,control,same,catch_shape_no_change6,1,none,2
catch_shape,change3,11,99,different,9,2150.7,control,different,catch_shape_change3,1,none,2
shape4,no_change5,11,100,same,3,1872.3,control,same,shape4_no_change5,1,none,2
shape8,no_change6,11,101,same,1,3675.5,control,same,shape8_no_change6,1,none,2
shape1,no_change4,11,102,same,8,1960.5,control,same,shape1_no_change4,1,none,2
shape5,concave_area2,11,103,different,7,1622.4,control,different,shape5_concave_area2,1,concave,2
shape6,convex_area1,11,104,different,6,1957,control,different,shape6_convex_area1,1,convex,2
shape3,concave_area1,11,105,different,1,1916,control,different,shape3_concave_area1,1,concave,2
shape7,concave_area1,11,106,different,1,1702.1,control,different,shape7_concave_area1,1,concave,2
shape2,no_change6,11,107,same,9,1523.5,control,same,shape2_no_change6,1,none,2
shape5,no_change4,0,0,same,9,8827.2,control,same,shape5_no_change4,1,none,3
shape3,no_change5,0,1,same,9,1840.2,control,same,shape3_no_change5,1,none,3
shape6,no_change2,0,2,same,9,2139.8,control,same,shape6_no_change2,1,none,3
catch_shape,no_change4,0,3,same,9,4451,control,same,catch_shape_no_change4,1,none,3
shape2,no_change2,0,4,same,9,1885.8,control,same,shape2_no_change2,1,none,3
shape4,concave_nofill_area2,0,5,same,9,1706.7,control,different,shape4_concave_nofill_area2,0,concave_nofill,3
shape1,concave_area2,0,6,different,8,3389.9,control,different,shape1_concave_area2,1,concave,3
shape7,convex_area2,0,7,different,7,2512.7,control,different,shape7_convex_area2,1,convex,3
shape8,convex_area2,0,8,different,9,3036.1,control,different,shape8_convex_area2,1,convex,3
catch_shape,no_change1,1,9,same,9,1785.4,control,same,catch_shape_no_change1,1,none,3
shape7,no_change1,1,10,same,9,1949.7,control,same,shape7_no_change1,1,none,3
shape5,no_change6,1,11,same,9,2041.1,control,same,shape5_no_change6,1,none,3
shape4,no_change6,1,12,same,9,1242.2,control,same,shape4_no_change6,1,none,3
shape6,no_change5,1,13,same,9,1019.5,control,same,shape6_no_change5,1,none,3
shape3,concave_area1,1,14,different,6,1449.4,control,different,shape3_concave_area1,1,concave,3
shape2,no_change1,1,15,same,9,1275.9,control,same,shape2_no_change1,1,none,3
shape1,concave_area1,1,16,same,9,973,control,different,shape1_concave_area1,0,concave,3
shape8,no_change3,1,17,same,9,2879.1,control,same,shape8_no_change3,1,none,3
shape1,no_change2,2,18,same,9,1864.5,control,same,shape1_no_change2,1,none,3
shape2,concave_area1,2,19,different,7,1813.7,control,different,shape2_concave_area1,1,concave,3
shape6,concave_area1,2,20,same,9,1141.9,control,different,shape6_concave_area1,0,concave,3
catch_shape,change5,2,21,different,9,1967.2,control,different,catch_shape_change5,1,none,3
shape7,no_change6,2,22,same,9,3455.6,control,same,shape7_no_change6,1,none,3
shape3,no_change1,2,23,different,5,2470.6,control,same,shape3_no_change1,0,none,3
shape5,no_change3,2,24,same,6,2739.2,control,same,shape5_no_change3,1,none,3
shape8,convex_area1,2,25,different,9,1458.8,control,different,shape8_convex_area1,1,convex,3
shape4,concave_area1,2,26,different,9,1900.9,control,different,shape4_concave_area1,1,concave,3
shape7,convex_area1,3,27,different,9,1544.3,control,different,shape7_convex_area1,1,convex,3
shape6,concave_area2,3,28,same,7,1305.7,control,different,shape6_concave_area2,0,concave,3
catch_shape,change6,3,29,different,9,1476,control,different,catch_shape_change6,1,none,3
shape8,no_change6,3,30,same,9,882.9,control,same,shape8_no_change6,1,none,3
shape5,concave_area1,3,31,same,6,1775.2,control,different,shape5_concave_area1,0,concave,3
shape4,concave_area2,3,32,different,7,1657.7,control,different,shape4_concave_area2,1,concave,3
shape3,convex_area2,3,33,same,8,1196.6,control,different,shape3_convex_area2,0,convex,3
shape2,no_change5,3,34,same,6,1682,control,same,shape2_no_change5,1,none,3
shape1,concave_nofill_area2,3,35,different,9,1165.5,control,different,shape1_concave_nofill_area2,1,concave_nofill,3
shape2,concave_nofill_area1,4,36,different,9,948.4,control,different,shape2_concave_nofill_area1,1,concave_nofill,3
shape7,no_change4,4,37,same,9,905.8,control,same,shape7_no_change4,1,none,3
shape1,no_change1,4,38,same,9,795.9,control,same,shape1_no_change1,1,none,3
shape8,no_change1,4,39,same,7,841.7,control,same,shape8_no_change1,1,none,3
shape5,concave_nofill_area1,4,40,different,9,863.4,control,different,shape5_concave_nofill_area1,1,concave_nofill,3
shape3,no_change6,4,41,same,4,3048.7,control,same,shape3_no_change6,1,none,3
catch_shape,no_change5,4,42,same,9,827.5,control,same,catch_shape_no_change5,1,none,3
shape6,convex_area2,4,43,different,9,4308.4,control,different,shape6_convex_area2,1,convex,3
shape4,no_change5,4,44,same,7,961.3,control,same,shape4_no_change5,1,none,3
shape3,no_change2,5,45,same,9,808.3,control,same,shape3_no_change2,1,none,3
shape1,concave_nofill_area1,5,46,different,9,1162.8,control,different,shape1_concave_nofill_area1,1,concave_nofill,3
shape6,no_change6,5,47,same,9,966.2,control,same,shape6_no_change6,1,none,3
shape5,no_change2,5,48,different,5,1448,control,same,shape5_no_change2,0,none,3
shape2,no_change6,5,49,same,9,1187.2,control,same,shape2_no_change6,1,none,3
catch_shape,change1,5,50,different,9,1382.3,control,different,catch_shape_change1,1,none,3
shape8,no_change5,5,51,same,8,774.4,control,same,shape8_no_change5,1,none,3
shape4,convex_area2,5,52,different,9,1485.7,control,different,shape4_convex_area2,1,convex,3
shape7,concave_nofill_area1,5,53,different,9,1153.1,control,different,shape7_concave_nofill_area1,1,concave_nofill,3
catch_shape,change3,6,54,different,9,1727.2,control,different,catch_shape_change3,1,none,3
shape8,no_change2,6,55,same,9,998.2,control,same,shape8_no_change2,1,none,3
shape2,concave_area2,6,56,different,9,1386.2,control,different,shape2_concave_area2,1,concave,3
shape1,no_change6,6,57,same,9,1071.3,control,same,shape1_no_change6,1,none,3
shape5,no_change5,6,58,same,9,833.9,control,same,shape5_no_change5,1,none,3
shape3,no_change3,6,59,same,6,1369,control,same,shape3_no_change3,1,none,3
shape4,no_change4,6,60,same,9,2888.1,control,same,shape4_no_change4,1,none,3
shape7,concave_area1,6,61,same,9,1233.7,control,different,shape7_concave_area1,0,concave,3
shape6,no_change1,6,62,same,9,786.8,control,same,shape6_no_change1,1,none,3
shape1,no_change5,7,63,same,9,930.6,control,same,shape1_no_change5,1,none,3
shape8,no_change4,7,64,same,9,1548.2,control,same,shape8_no_change4,1,none,3
shape2,convex_area1,7,65,different,9,1035.3,control,different,shape2_convex_area1,1,convex,3
shape3,concave_nofill_area1,7,66,different,6,1391.1,control,different,shape3_concave_nofill_area1,1,concave_nofill,3
catch_shape,no_change6,7,67,same,9,1028.1,control,same,catch_shape_no_change6,1,none,3
shape5,convex_area2,7,68,different,9,1352.9,control,different,shape5_convex_area2,1,convex,3
shape6,no_change3,7,69,same,9,1702.1,control,same,shape6_no_change3,1,none,3
shape7,no_change2,7,70,same,9,893.5,control,same,shape7_no_change2,1,none,3
shape4,concave_nofill_area1,7,71,different,9,1355.5,control,different,shape4_concave_nofill_area1,1,concave_nofill,3
shape4,no_change3,8,72,same,9,785.9,control,same,shape4_no_change3,1,none,3
shape7,concave_nofill_area2,8,73,different,9,1066.4,control,different,shape7_concave_nofill_area2,1,concave_nofill,3
shape8,concave_nofill_area1,8,74,different,9,1337.2,control,different,shape8_concave_nofill_area1,1,concave_nofill,3
catch_shape,change4,8,75,different,9,1180.9,control,different,catch_shape_change4,1,none,3
shape5,convex_area1,8,76,different,9,1104.3,control,different,shape5_convex_area1,1,convex,3
shape1,convex_area2,8,77,different,9,1250.5,control,different,shape1_convex_area2,1,convex,3
shape6,concave_nofill_area2,8,78,different,9,1093.6,control,different,shape6_concave_nofill_area2,1,concave_nofill,3
shape3,convex_area1,8,79,different,6,1296.6,control,different,shape3_convex_area1,1,convex,3
shape2,no_change3,8,80,same,9,1034.5,control,same,shape2_no_change3,1,none,3
shape8,concave_area1,9,81,different,9,1139.6,control,different,shape8_concave_area1,1,concave,3
shape7,no_change3,9,82,same,9,866.9,control,same,shape7_no_change3,1,none,3
catch_shape,no_change2,9,83,same,9,1438.5,control,same,catch_shape_no_change2,1,none,3
shape5,no_change1,9,84,different,4,1383.4,control,same,shape5_no_change1,0,none,3
shape4,no_change2,9,85,same,9,1397.8,control,same,shape4_no_change2,1,none,3
shape1,convex_area1,9,86,different,9,1184.3,control,different,shape1_convex_area1,1,convex,3
shape2,convex_area2,9,87,different,9,872.5,control,different,shape2_convex_area2,1,convex,3
shape3,concave_area2,9,88,different,5,1222.4,control,different,shape3_concave_area2,1,concave,3
shape6,concave_nofill_area1,9,89,different,9,1064.7,control,different,shape6_concave_nofill_area1,1,concave_nofill,3
shape8,concave_nofill_area2,10,90,different,9,1021,control,different,shape8_concave_nofill_area2,1,concave_nofill,3
shape5,concave_nofill_area2,10,91,different,9,977.2,control,different,shape5_concave_nofill_area2,1,concave_nofill,3
shape1,no_change3,10,92,different,6,994.8,control,same,shape1_no_change3,0,none,3
shape2,no_change4,10,93,same,9,950.2,control,same,shape2_no_change4,1,none,3
shape4,convex_area1,10,94,different,9,1015.2,control,different,shape4_convex_area1,1,convex,3
shape7,no_change5,10,95,same,9,974.8,control,same,shape7_no_change5,1,none,3
shape3,no_change4,10,96,different,6,2034.9,control,same,shape3_no_change4,0,none,3
catch_shape,change2,10,97,different,9,1062.5,control,different,catch_shape_change2,1,none,3
shape6,convex_area1,10,98,different,9,991,control,different,shape6_convex_area1,1,convex,3
shape4,no_change1,11,99,same,9,960.1,control,same,shape4_no_change1,1,none,3
shape6,no_change4,11,100,different,9,1811.6,control,same,shape6_no_change4,0,none,3
shape2,concave_nofill_area2,11,101,different,6,1258.4,control,different,shape2_concave_nofill_area2,1,concave_nofill,3
shape5,concave_area2,11,102,different,7,875.3,control,different,shape5_concave_area2,1,concave,3
catch_shape,no_change3,11,103,same,9,1331.4,control,same,catch_shape_no_change3,1,none,3
shape3,concave_nofill_area2,11,104,different,5,1226.9,control,different,shape3_concave_nofill_area2,1,concave_nofill,3
shape1,no_change4,11,105,same,9,1156,control,same,shape1_no_change4,1,none,3
shape8,concave_area2,11,106,different,8,1046,control,different,shape8_concave_area2,1,concave,3
shape7,concave_area2,11,107,same,8,2003.4,control,different,shape7_concave_area2,0,concave,3
shape1,concave_area1,0,0,same,9,6485.5,control,different,shape1_concave_area1,0,concave,4
shape6,concave_area2,0,1,same,9,3753.3,control,different,shape6_concave_area2,0,concave,4
shape8,concave_area2,0,2,different,5,5078.8,control,different,shape8_concave_area2,1,concave,4
shape7,no_change2,0,3,same,7,3087,control,same,shape7_no_change2,1,none,4
catch_shape,no_change6,0,4,same,6,9989.1,control,same,catch_shape_no_change6,1,none,4
shape5,concave_nofill_area2,0,5,different,9,2983.4,control,different,shape5_concave_nofill_area2,1,concave_nofill,4
shape2,concave_nofill_area1,0,6,different,9,1760.1,control,different,shape2_concave_nofill_area1,1,concave_nofill,4
shape3,no_change4,0,7,same,6,2084.9,control,same,shape3_no_change4,1,none,4
shape4,concave_area1,0,8,same,6,3590.3,control,different,shape4_concave_area1,0,concave,4
shape1,no_change3,1,9,same,7,2959.7,control,same,shape1_no_change3,1,none,4
shape2,no_change6,1,10,same,8,2665,control,same,shape2_no_change6,1,none,4
catch_shape,no_change5,1,11,same,6,3206.6,control,same,catch_shape_no_change5,1,none,4
shape3,concave_area1,1,12,same,6,5574.9,control,different,shape3_concave_area1,0,concave,4
shape5,no_change6,1,13,different,4,4634.5,control,same,shape5_no_change6,0,none,4
shape4,no_change2,1,14,same,4,2293.7,control,same,shape4_no_change2,1,none,4
shape6,concave_area1,1,15,different,3,1871.8,control,different,shape6_concave_area1,1,concave,4
shape8,no_change3,1,16,same,6,2383.1,control,same,shape8_no_change3,1,none,4
shape7,concave_nofill_area2,1,17,different,9,1822.9,control,different,shape7_concave_nofill_area2,1,concave_nofill,4
shape1,no_change6,2,18,same,2,3982.4,control,same,shape1_no_change6,1,none,4
shape2,no_change5,2,19,same,8,2469.5,control,same,shape2_no_change5,1,none,4
shape5,no_change5,2,20,same,7,3036,control,same,shape5_no_change5,1,none,4
catch_shape,change6,2,21,different,9,2418.7,control,different,catch_shape_change6,1,none,4
shape7,no_change6,2,22,same,8,2668.7,control,same,shape7_no_change6,1,none,4
shape3,concave_area2,2,23,same,6,2854.3,control,different,shape3_concave_area2,0,concave,4
shape4,convex_area2,2,24,different,9,1967,control,different,shape4_convex_area2,1,convex,4
shape6,no_change6,2,25,same,7,2042.4,control,same,shape6_no_change6,1,none,4
shape8,no_change4,2,26,same,7,3230.5,control,same,shape8_no_change4,1,none,4
shape5,convex_area2,3,27,different,9,3109.5,control,different,shape5_convex_area2,1,convex,4
shape3,no_change1,3,28,same,7,2574.1,control,same,shape3_no_change1,1,none,4
shape4,no_change4,3,29,same,9,1830.9,control,same,shape4_no_change4,1,none,4
shape8,concave_area1,3,30,different,5,2790.3,control,different,shape8_concave_area1,1,concave,4
shape2,no_change4,3,31,same,7,2894.5,control,same,shape2_no_change4,1,none,4
shape1,concave_nofill_area1,3,32,different,7,3170.6,control,different,shape1_concave_nofill_area1,1,concave_nofill,4
shape7,concave_nofill_area1,3,33,different,9,1602.7,control,different,shape7_concave_nofill_area1,1,concave_nofill,4
catch_shape,no_change4,3,34,same,5,5062.4,control,same,catch_shape_no_change4,1,none,4
shape6,convex_area1,3,35,different,9,1161.7,control,different,shape6_convex_area1,1,convex,4
shape2,concave_area1,4,36,different,8,2750.1,control,different,shape2_concave_area1,1,concave,4
shape8,no_change6,4,37,same,4,3546.4,control,same,shape8_no_change6,1,none,4
shape4,no_change3,4,38,same,6,3031,control,same,shape4_no_change3,1,none,4
shape3,no_change2,4,39,same,7,3711,control,same,shape3_no_change2,1,none,4
shape1,concave_area2,4,40,different,9,1559.1,control,different,shape1_concave_area2,1,concave,4
shape6,no_change5,4,41,same,2,3769,control,same,shape6_no_change5,1,none,4
shape5,no_change4,4,42,different,3,1936.9,control,same,shape5_no_change4,0,none,4
catch_shape,no_change3,4,43,same,8,1645.3,control,same,catch_shape_no_change3,1,none,4
shape7,no_change1,4,44,same,5,1318.7,control,same,shape7_no_change1,1,none,4
shape1,no_change5,5,45,same,4,2222.4,control,same,shape1_no_change5,1,none,4
shape8,concave_nofill_area2,5,46,different,8,845.9,control,different,shape8_concave_nofill_area2,1,concave_nofill,4
shape2,convex_area2,5,47,different,8,1854.6,control,different,shape2_convex_area2,1,convex,4
shape7,concave_area2,5,48,different,6,3176.6,control,different,shape7_concave_area2,1,concave,4
catch_shape,change5,5,49,different,9,2175.3,control,different,catch_shape_change5,1,none,4
shape4,no_change1,5,50,same,7,2504.9,control,same,shape4_no_change1,1,none,4
shape3,no_change6,5,51,same,7,1930.4,control,same,shape3_no_change6,1,none,4
shape5,no_change3,5,52,different,4,2333.7,control,same,shape5_no_change3,0,none,4
shape6,no_change4,5,53,same,6,2210.9,control,same,shape6_no_change4,1,none,4
shape6,no_change3,6,54,same,2,1837.8,control,same,shape6_no_change3,1,none,4
shape2,convex_area1,6,55,different,9,2483,control,different,shape2_convex_area1,1,convex,4
shape8,no_change2,6,56,same,7,3598.8,control,same,shape8_no_change2,1,none,4
shape1,convex_area2,6,57,different,9,1706.1,control,different,shape1_convex_area2,1,convex,4
shape7,no_change5,6,58,different,3,4247.6,control,same,shape7_no_change5,0,none,4
shape3,convex_area1,6,59,different,6,1949.9,control,different,shape3_convex_area1,1,convex,4
catch_shape,change1,6,60,different,9,1316.7,control,different,catch_shape_change1,1,none,4
shape5,no_change2,6,61,same,6,1597,control,same,shape5_no_change2,1,none,4
shape4,concave_nofill_area1,6,62,different,9,1245.7,control,different,shape4_concave_nofill_area1,1,concave_nofill,4
shape1,no_change4,7,63,same,1,2542.7,control,same,shape1_no_change4,1,none,4
shape2,no_change3,7,64,same,7,1956.3,control,same,shape2_no_change3,1,none,4
shape7,convex_area2,7,65,different,9,2096.5,control,different,shape7_convex_area2,1,convex,4
shape3,convex_area2,7,66,different,4,2737.6,control,different,shape3_convex_area2,1,convex,4
shape4,concave_area2,7,67,different,3,2493.4,control,different,shape4_concave_area2,1,concave,4
shape5,concave_area2,7,68,same,3,2826.6,control,different,shape5_concave_area2,0,concave,4
shape6,concave_nofill_area1,7,69,different,9,1683.8,control,different,shape6_concave_nofill_area1,1,concave_nofill,4
catch_shape,no_change2,7,70,same,8,3284.4,control,same,catch_shape_no_change2,1,none,4
shape8,no_change1,7,71,same,7,2574.9,control,same,shape8_no_change1,1,none,4
shape8,convex_area1,8,72,different,9,1269.7,control,different,shape8_convex_area1,1,convex,4
shape1,convex_area1,8,73,different,9,1623.2,control,different,shape1_convex_area1,1,convex,4
shape2,concave_area2,8,74,different,4,3012.8,control,different,shape2_concave_area2,1,concave,4
shape3,concave_nofill_area1,8,75,same,4,2590.1,control,different,shape3_concave_nofill_area1,0,concave_nofill,4
shape4,concave_nofill_area2,8,76,different,7,3014.1,control,different,shape4_concave_nofill_area2,1,concave_nofill,4
shape5,concave_nofill_area1,8,77,different,9,1466.2,control,different,shape5_concave_nofill_area1,1,concave_nofill,4
shape6,no_change2,8,78,same,5,3957.5,control,same,shape6_no_change2,1,none,4
catch_shape,change2,8,79,different,9,1979.1,control,different,catch_shape_change2,1,none,4
shape7,convex_area1,8,80,different,8,1836.3,control,different,shape7_convex_area1,1,convex,4
shape8,no_change5,9,81,same,6,2811.8,control,same,shape8_no_change5,1,none,4
shape7,concave_area1,9,82,same,6,2784.1,control,different,shape7_concave_area1,0,concave,4
shape5,no_change1,9,83,different,2,8015.1,control,same,shape5_no_change1,0,none,4
shape6,concave_nofill_area2,9,84,different,4,2101.2,control,different,shape6_concave_nofill_area2,1,concave_nofill,4
shape1,no_change2,9,85,same,5,2455.5,control,same,shape1_no_change2,1,none,4
shape2,no_change2,9,86,same,7,1066.5,control,same,shape2_no_change2,1,none,4
catch_shape,no_change1,9,87,same,9,2514.7,control,same,catch_shape_no_change1,1,none,4
shape4,no_change5,9,88,same,7,3764,control,same,shape4_no_change5,1,none,4
shape3,concave_nofill_area2,9,89,different,6,1700.6,control,different,shape3_concave_nofill_area2,1,concave_nofill,4
shape3,no_change3,10,90,same,5,4371.1,control,same,shape3_no_change3,1,none,4
shape4,no_change6,10,91,same,8,3139,control,same,shape4_no_change6,1,none,4
shape6,convex_area2,10,92,different,9,2655.9,control,different,shape6_convex_area2,1,convex,4
shape5,concave_area1,10,93,same,2,4028,control,different,shape5_concave_area1,0,concave,4
shape7,no_change3,10,94,same,8,1309.8,control,same,shape7_no_change3,1,none,4
shape8,convex_area2,10,95,different,9,1679.4,control,different,shape8_convex_area2,1,convex,4
catch_shape,change4,10,96,different,9,1719.2,control,different,catch_shape_change4,1,none,4
shape2,no_change1,10,97,same,7,5152.6,control,same,shape2_no_change1,1,none,4
shape1,no_change1,10,98,same,6,8912.9,control,same,shape1_no_change1,1,none,4
shape8,concave_nofill_area1,11,99,different,3,2063,control,different,shape8_concave_nofill_area1,1,concave_nofill,4
shape6,no_change1,11,100,same,7,3626.8,control,same,shape6_no_change1,1,none,4
catch_shape,change3,11,101,different,9,1492.4,control,different,catch_shape_change3,1,none,4
shape1,concave_nofill_area2,11,102,same,1,3737.1,control,different,shape1_concave_nofill_area2,0,concave_nofill,4
shape2,concave_nofill_area2,11,103,different,4,2237,control,different,shape2_concave_nofill_area2,1,concave_nofill,4
shape5,convex_area1,11,104,different,9,1927.3,control,different,shape5_convex_area1,1,convex,4
shape4,convex_area1,11,105,different,9,1482.6,control,different,shape4_convex_area1,1,convex,4
shape3,no_change5,11,106,different,3,2140,control,same,shape3_no_change5,0,none,4
shape7,no_change4,11,107,same,7,1349.4,control,same,shape7_no_change4,1,none,4
shape4,no_change3,0,0,same,5,6812.3,control,same,shape4_no_change3,1,none,5
shape1,no_change4,0,1,different,4,3647.1,control,same,shape1_no_change4,0,none,5
shape2,concave_nofill_area1,0,2,different,9,4047.4,control,different,shape2_concave_nofill_area1,1,concave_nofill,5
catch_shape,change6,0,3,same,1,3404.8,control,different,catch_shape_change6,0,none,5
shape3,no_change1,0,4,different,5,1683.2,control,same,shape3_no_change1,0,none,5
shape7,concave_area2,0,5,same,9,3400.7,control,different,shape7_concave_area2,0,concave,5
shape5,convex_area2,0,6,same,1,1980.3,control,different,shape5_convex_area2,0,convex,5
shape8,no_change4,0,7,different,9,1895.6,control,same,shape8_no_change4,0,none,5
shape6,convex_area1,0,8,different,5,3326.5,control,different,shape6_convex_area1,1,convex,5
shape8,convex_area1,1,9,same,1,3344,control,different,shape8_convex_area1,0,convex,5
catch_shape,change2,1,10,different,9,3242.2,control,different,catch_shape_change2,1,none,5
shape4,no_change2,1,11,different,9,3046.6,control,same,shape4_no_change2,0,none,5
shape5,no_change1,1,12,same,1,4160.3,control,same,shape5_no_change1,1,none,5
shape1,convex_area1,1,13,different,5,6199.9,control,different,shape1_convex_area1,1,convex,5
shape6,no_change4,1,14,same,3,3853.3,control,same,shape6_no_change4,1,none,5
shape2,no_change1,1,15,same,4,2736.9,control,same,shape2_no_change1,1,none,5
shape3,concave_area2,1,16,different,4,1682.2,control,different,shape3_concave_area2,1,concave,5
shape7,no_change1,1,17,same,4,1383.1,control,same,shape7_no_change1,1,none,5
shape8,no_change1,2,18,same,4,1646,control,same,shape8_no_change1,1,none,5
shape2,concave_nofill_area2,2,19,different,4,2216.6,control,different,shape2_concave_nofill_area2,1,concave_nofill,5
shape4,concave_nofill_area1,2,20,different,4,1666,control,different,shape4_concave_nofill_area1,1,concave_nofill,5
catch_shape,change1,2,21,different,9,3472.6,control,different,catch_shape_change1,1,none,5
shape7,concave_nofill_area1,2,22,different,9,1577.9,control,different,shape7_concave_nofill_area1,1,concave_nofill,5
shape5,no_change6,2,23,same,4,2880.9,control,same,shape5_no_change6,1,none,5
shape1,no_change1,2,24,same,4,1522.9,control,same,shape1_no_change1,1,none,5
shape6,concave_area1,2,25,different,3,1209.7,control,different,shape6_concave_area1,1,concave,5
shape3,no_change2,2,26,different,1,4500.7,control,same,shape3_no_change2,0,none,5
catch_shape,no_change1,3,27,same,9,2006.7,control,same,catch_shape_no_change1,1,none,5
shape4,no_change6,3,28,same,9,1186.6,control,same,shape4_no_change6,1,none,5
shape6,convex_area2,3,29,different,9,3266.2,control,different,shape6_convex_area2,1,convex,5
shape8,concave_nofill_area2,3,30,different,9,1950.9,control,different,shape8_concave_nofill_area2,1,concave_nofill,5
shape2,no_change2,3,31,same,9,1649.3,control,same,shape2_no_change2,1,none,5
shape7,no_change2,3,32,same,5,1570.3,control,same,shape7_no_change2,1,none,5
shape1,concave_area2,3,33,different,5,2657.2,control,different,shape1_concave_area2,1,concave,5
shape5,concave_nofill_area2,3,34,different,9,2152.6,control,different,shape5_concave_nofill_area2,1,concave_nofill,5
shape3,no_change3,3,35,same,8,2344.1,control,same,shape3_no_change3,1,none,5
shape6,concave_nofill_area2,4,36,different,5,5532.8,control,different,shape6_concave_nofill_area2,1,concave_nofill,5
shape4,no_change1,4,37,same,5,2171,control,same,shape4_no_change1,1,none,5
shape1,concave_area1,4,38,same,1,3269.7,control,different,shape1_concave_area1,0,concave,5
shape2,no_change3,4,39,same,8,3928.7,control,same,shape2_no_change3,1,none,5
shape7,no_change6,4,40,same,1,2257.4,control,same,shape7_no_change6,1,none,5
catch_shape,no_change3,4,41,same,9,5106.1,control,same,catch_shape_no_change3,1,none,5
shape3,convex_area2,4,42,same,3,2736.9,control,different,shape3_convex_area2,0,convex,5
shape8,no_change6,4,43,different,5,1670.9,control,same,shape8_no_change6,0,none,5
shape5,no_change5,4,44,same,5,2485.1,control,same,shape5_no_change5,1,none,5
shape4,concave_nofill_area2,5,45,different,9,3490,control,different,shape4_concave_nofill_area2,1,concave_nofill,5
shape6,no_change3,5,46,same,5,1533.7,control,same,shape6_no_change3,1,none,5
catch_shape,no_change6,5,47,same,9,1845.5,control,same,catch_shape_no_change6,1,none,5
shape2,no_change4,5,48,different,5,2351.1,control,same,shape2_no_change4,0,none,5
shape8,concave_area1,5,49,same,5,1276.2,control,different,shape8_concave_area1,0,concave,5
shape5,concave_nofill_area1,5,50,different,9,1827,control,different,shape5_concave_nofill_area1,1,concave_nofill,5
shape3,concave_nofill_area2,5,51,different,3,2162.9,control,different,shape3_concave_nofill_area2,1,concave_nofill,5
shape7,no_change3,5,52,same,9,1538.1,control,same,shape7_no_change3,1,none,5
shape1,convex_area2,5,53,different,9,1690.8,control,different,shape1_convex_area2,1,convex,5
shape5,no_change2,6,54,same,4,1375,control,same,shape5_no_change2,1,none,5
shape3,no_change6,6,55,same,4,1741.3,control,same,shape3_no_change6,1,none,5
shape6,no_change6,6,56,same,5,1304.7,control,same,shape6_no_change6,1,none,5
shape8,no_change5,6,57,same,5,1387.2,control,same,shape8_no_change5,1,none,5
shape7,concave_nofill_area2,6,58,different,9,1380,control,different,shape7_concave_nofill_area2,1,concave_nofill,5
shape4,no_change5,6,59,same,5,1469.8,control,same,shape4_no_change5,1,none,5
shape2,convex_area2,6,60,different,9,877,control,different,shape2_convex_area2,1,convex,5
catch_shape,no_change2,6,61,same,9,1387.8,control,same,catch_shape_no_change2,1,none,5
shape1,no_change6,6,62,different,2,3118.6,control,same,shape1_no_change6,0,none,5
shape1,no_change5,7,63,same,5,2616,control,same,shape1_no_change5,1,none,5
shape2,concave_area2,7,64,different,9,1413.8,control,different,shape2_concave_area2,1,concave,5
shape3,convex_area1,7,65,same,5,1577.5,control,different,shape3_convex_area1,0,convex,5
shape4,convex_area2,7,66,different,9,1411.2,control,different,shape4_convex_area2,1,convex,5
shape5,no_change3,7,67,same,5,1276,control,same,shape5_no_change3,1,none,5
shape6,concave_area2,7,68,different,3,1905.6,control,different,shape6_concave_area2,1,concave,5
shape7,convex_area2,7,69,different,3,1259.1,control,different,shape7_convex_area2,1,convex,5
shape8,no_change2,7,70,same,5,1306.9,control,same,shape8_no_change2,1,none,5
catch_shape,no_change5,7,71,same,9,1919.8,control,same,catch_shape_no_change5,1,none,5
shape8,no_change3,8,72,same,2,2498.1,control,same,shape8_no_change3,1,none,5
shape2,no_change5,8,73,same,3,1480.8,control,same,shape2_no_change5,1,none,5
shape6,no_change5,8,74,same,4,840.2,control,same,shape6_no_change5,1,none,5
shape4,no_change4,8,75,same,5,1247.5,control,same,shape4_no_change4,1,none,5
shape5,concave_area1,8,76,same,5,1267.3,control,different,shape5_concave_area1,0,concave,5
shape7,no_change5,8,77,same,3,1677.7,control,same,shape7_no_change5,1,none,5
catch_shape,change3,8,78,different,9,4510.4,control,different,catch_shape_change3,1,none,5
shape1,no_change3,8,79,different,4,1513.8,control,same,shape1_no_change3,0,none,5
shape3,no_change4,8,80,same,3,1693.6,control,same,shape3_no_change4,1,none,5
shape1,no_change2,9,81,same,4,1817.6,control,same,shape1_no_change2,1,none,5
shape8,concave_nofill_area1,9,82,different,6,1388,control,different,shape8_concave_nofill_area1,1,concave_nofill,5
shape6,no_change2,9,83,same,5,1260.5,control,same,shape6_no_change2,1,none,5
shape2,convex_area1,9,84,different,9,1273.8,control,different,shape2_convex_area1,1,convex,5
shape7,no_change4,9,85,same,5,3289,control,same,shape7_no_change4,1,none,5
shape5,concave_area2,9,86,same,4,1474.4,control,different,shape5_concave_area2,0,concave,5
catch_shape,change5,9,87,different,9,2182.6,control,different,catch_shape_change5,1,none,5
shape3,concave_nofill_area1,9,88,different,4,2277.2,control,different,shape3_concave_nofill_area1,1,concave_nofill,5
shape4,concave_area1,9,89,different,3,1448.3,control,different,shape4_concave_area1,1,concave,5
shape6,concave_nofill_area1,10,90,different,8,2239,control,different,shape6_concave_nofill_area1,1,concave_nofill,5
shape1,concave_nofill_area2,10,91,different,8,1891.2,control,different,shape1_concave_nofill_area2,1,concave_nofill,5
shape7,concave_area1,10,92,different,6,1403,control,different,shape7_concave_area1,1,concave,5
shape4,convex_area1,10,93,different,7,1611.2,control,different,shape4_convex_area1,1,convex,5
catch_shape,change4,10,94,different,9,2150.9,control,different,catch_shape_change4,1,none,5
shape2,no_change6,10,95,different,6,2012.2,control,same,shape2_no_change6,0,none,5
shape5,convex_area1,10,96,different,9,1215.7,control,different,shape5_convex_area1,1,convex,5
shape3,no_change5,10,97,same,5,1108.9,control,same,shape3_no_change5,1,none,5
shape8,convex_area2,10,98,different,9,1091.1,control,different,shape8_convex_area2,1,convex,5
shape6,no_change1,11,99,same,5,1137.7,control,same,shape6_no_change1,1,none,5
shape5,no_change4,11,100,same,5,1157.3,control,same,shape5_no_change4,1,none,5
shape4,concave_area2,11,101,different,9,1116.9,control,different,shape4_concave_area2,1,concave,5
shape8,concave_area2,11,102,different,7,1276.1,control,different,shape8_concave_area2,1,concave,5
catch_shape,no_change4,11,103,same,9,1456.1,control,same,catch_shape_no_change4,1,none,5
shape3,concave_area1,11,104,same,5,2208.8,control,different,shape3_concave_area1,0,concave,5
shape2,concave_area1,11,105,different,3,2297.8,control,different,shape2_concave_area1,1,concave,5
shape1,concave_nofill_area1,11,106,same,5,1321,control,different,shape1_concave_nofill_area1,0,concave_nofill,5
shape7,convex_area1,11,107,same,2,3114,control,different,shape7_convex_area1,0,convex,5
shape6,no_change3,0,0,same,9,5940,control,same,shape6_no_change3,1,none,6
shape3,no_change5,0,1,same,8,2756.3,control,same,shape3_no_change5,1,none,6
shape2,no_change1,0,2,same,5,4121.7,control,same,shape2_no_change1,1,none,6
catch_shape,change1,0,3,different,9,5042,control,different,catch_shape_change1,1,none,6
shape4,no_change5,0,4,same,7,3464.4,control,same,shape4_no_change5,1,none,6
shape1,concave_nofill_area2,0,5,different,9,2611.1,control,different,shape1_concave_nofill_area2,1,concave_nofill,6
shape7,concave_nofill_area1,0,6,different,9,3079.3,control,different,shape7_concave_nofill_area1,1,concave_nofill,6
shape5,no_change1,0,7,different,2,2660.3,control,same,shape5_no_change1,0,none,6
shape8,no_change1,0,8,different,2,2785.3,control,same,shape8_no_change1,0,none,6
shape8,no_change2,1,9,same,6,1823.9,control,same,shape8_no_change2,1,none,6
shape3,no_change4,1,10,same,3,4341.1,control,same,shape3_no_change4,1,none,6
shape7,no_change4,1,11,same,4,2171,control,same,shape7_no_change4,1,none,6
catch_shape,change2,1,12,different,9,3445.4,control,different,catch_shape_change2,1,none,6
shape4,concave_area1,1,13,different,9,1965.2,control,different,shape4_concave_area1,1,concave,6
shape6,no_change4,1,14,same,6,2742.2,control,same,shape6_no_change4,1,none,6
shape5,no_change4,1,15,different,4,4217.5,control,same,shape5_no_change4,0,none,6
shape2,no_change2,1,16,same,5,2049.3,control,same,shape2_no_change2,1,none,6
shape1,no_change4,1,17,same,3,2590.9,control,same,shape1_no_change4,1,none,6
shape7,no_change3,2,18,same,5,2590.1,control,same,shape7_no_change3,1,none,6
shape3,concave_area1,2,19,same,2,2583.6,control,different,shape3_concave_area1,0,concave,6
shape6,no_change6,2,20,same,6,3875.2,control,same,shape6_no_change6,1,none,6
shape2,no_change3,2,21,same,1,2121.5,control,same,shape2_no_change3,1,none,6
shape5,concave_nofill_area2,2,22,different,9,1762.5,control,different,shape5_concave_nofill_area2,1,concave_nofill,6
shape1,concave_area2,2,23,different,8,2530.3,control,different,shape1_concave_area2,1,concave,6
catch_shape,no_change3,2,24,same,9,2397.4,control,same,catch_shape_no_change3,1,none,6
shape4,no_change4,2,25,same,8,2201.4,control,same,shape4_no_change4,1,none,6
shape8,concave_nofill_area2,2,26,different,8,2986.1,control,different,shape8_concave_nofill_area2,1,concave_nofill,6
shape1,convex_area2,3,27,different,9,1714.9,control,different,shape1_convex_area2,1,convex,6
catch_shape,no_change4,3,28,same,9,1703.5,control,same,catch_shape_no_change4,1,none,6
shape5,no_change6,3,29,same,4,1530.5,control,same,shape5_no_change6,1,none,6
shape2,concave_nofill_area1,3,30,different,9,1688.6,control,different,shape2_concave_nofill_area1,1,concave_nofill,6
shape7,no_change6,3,31,same,8,1972.1,control,same,shape7_no_change6,1,none,6
shape8,convex_area1,3,32,different,9,965.5,control,different,shape8_convex_area1,1,convex,6
shape3,no_change6,3,33,same,5,1602.5,control,same,shape3_no_change6,1,none,6
shape6,no_change5,3,34,same,6,2485.1,control,same,shape6_no_change5,1,none,6
shape4,no_change3,3,35,same,4,3156.7,control,same,shape4_no_change3,1,none,6
shape4,no_change2,4,36,same,7,2498.9,control,same,shape4_no_change2,1,none,6
shape3,no_change2,4,37,different,2,2623,control,same,shape3_no_change2,0,none,6
shape2,convex_area1,4,38,different,9,1244,control,different,shape2_convex_area1,1,convex,6
shape7,no_change2,4,39,same,8,1502.1,control,same,shape7_no_change2,1,none,6
shape6,concave_nofill_area1,4,40,different,9,1290.3,control,different,shape6_concave_nofill_area1,1,concave_nofill,6
shape5,concave_area2,4,41,different,8,1863.5,control,different,shape5_concave_area2,1,concave,6
catch_shape,change5,4,42,different,9,2418.1,control,different,catch_shape_change5,1,none,6
shape1,no_change2,4,43,same,6,1315.5,control,same,shape1_no_change2,1,none,6
shape8,concave_area2,4,44,different,9,1390.8,control,different,shape8_concave_area2,1,concave,6
shape5,no_change2,5,45,same,4,1619.3,control,same,shape5_no_change2,1,none,6
shape3,convex_area2,5,46,different,1,2348.1,control,different,shape3_convex_area2,1,convex,6
catch_shape,no_change6,5,47,same,9,3155.9,control,same,catch_shape_no_change6,1,none,6
shape2,concave_area2,5,48,different,9,1106.1,control,different,shape2_concave_area2,1,concave,6
shape6,concave_nofill_area2,5,49,different,9,914.8,control,different,shape6_concave_nofill_area2,1,concave_nofill,6
shape7,concave_area2,5,50,same,7,1703.7,control,different,shape7_concave_area2,0,concave,6
shape4,no_change1,5,51,same,2,1450.2,control,same,shape4_no_change1,1,none,6
shape8,no_change4,5,52,same,7,1679.4,control,same,shape8_no_change4,1,none,6
shape1,concave_nofill_area1,5,53,different,7,2308.9,control,different,shape1_concave_nofill_area1,1,concave_nofill,6
shape8,no_change6,6,54,same,9,1606.8,control,same,shape8_no_change6,1,none,6
shape6,no_change2,6,55,same,7,1840.8,control,same,shape6_no_change2,1,none,6
shape1,no_change5,6,56,same,3,1685.7,control,same,shape1_no_change5,1,none,6
shape7,no_change5,6,57,same,8,1613,control,same,shape7_no_change5,1,none,6
shape2,no_change4,6,58,same,8,1180.3,control,same,shape2_no_change4,1,none,6
shape4,concave_area2,6,59,different,9,1633.6,control,different,shape4_concave_area2,1,concave,6
shape3,no_change1,6,60,same,4,2425.5,control,same,shape3_no_change1,1,none,6
shape5,no_change5,6,61,same,5,1759.5,control,same,shape5_no_change5,1,none,6
catch_shape,change6,6,62,different,9,1867.7,control,different,catch_shape_change6,1,none,6
shape8,concave_nofill_area1,7,63,different,9,1209.2,control,different,shape8_concave_nofill_area1,1,concave_nofill,6
shape6,convex_area2,7,64,different,9,1225.6,control,different,shape6_convex_area2,1,convex,6
shape7,convex_area1,7,65,different,9,1602.5,control,different,shape7_convex_area1,1,convex,6
shape4,concave_nofill_area1,7,66,different,9,1373.5,control,different,shape4_concave_nofill_area1,1,concave_nofill,6
shape1,no_change1,7,67,same,6,1242.3,control,same,shape1_no_change1,1,none,6
catch_shape,change3,7,68,different,9,962.3,control,different,catch_shape_change3,1,none,6
shape2,no_change5,7,69,same,7,1302.3,control,same,shape2_no_change5,1,none,6
shape3,concave_nofill_area2,7,70,same,2,1036.9,control,different,shape3_concave_nofill_area2,0,concave_nofill,6
shape5,concave_nofill_area1,7,71,different,9,950.3,control,different,shape5_concave_nofill_area1,1,concave_nofill,6
shape2,no_change6,8,72,same,9,1641.7,control,same,shape2_no_change6,1,none,6
shape7,convex_area2,8,73,different,9,1170.6,control,different,shape7_convex_area2,1,convex,6
shape4,convex_area2,8,74,different,9,1083.1,control,different,shape4_convex_area2,1,convex,6
shape8,convex_area2,8,75,different,9,1139.1,control,different,shape8_convex_area2,1,convex,6
shape5,concave_area1,8,76,different,3,1373.6,control,different,shape5_concave_area1,1,concave,6
catch_shape,no_change5,8,77,same,9,1537.9,control,same,catch_shape_no_change5,1,none,6
shape1,no_change3,8,78,different,1,3121.6,control,same,shape1_no_change3,0,none,6
shape3,no_change3,8,79,same,6,1517.1,control,same,shape3_no_change3,1,none,6
shape6,convex_area1,8,80,different,9,1234.9,control,different,shape6_convex_area1,1,convex,6
shape8,no_change5,9,81,same,8,1068.5,control,same,shape8_no_change5,1,none,6
shape7,concave_area1,9,82,same,9,1182.7,control,different,shape7_concave_area1,0,concave,6
shape2,concave_area1,9,83,different,9,806.8,control,different,shape2_concave_area1,1,concave,6
shape4,concave_nofill_area2,9,84,different,9,1045.9,control,different,shape4_concave_nofill_area2,1,concave_nofill,6
shape6,concave_area1,9,85,same,3,1537.3,control,different,shape6_concave_area1,0,concave,6
catch_shape,no_change2,9,86,same,9,2170.1,control,same,catch_shape_no_change2,1,none,6
shape1,no_change6,9,87,same,2,2896.7,control,same,shape1_no_change6,1,none,6
shape5,convex_area2,9,88,different,9,978.1,control,different,shape5_convex_area2,1,convex,6
shape3,concave_nofill_area1,9,89,different,5,1285.6,control,different,shape3_concave_nofill_area1,1,concave_nofill,6
shape7,no_change1,10,90,same,8,1382.5,control,same,shape7_no_change1,1,none,6
shape3,convex_area1,10,91,different,3,1149.2,control,different,shape3_convex_area1,1,convex,6
shape4,no_change6,10,92,same,9,1232.1,control,same,shape4_no_change6,1,none,6
catch_shape,no_change1,10,93,same,9,923.8,control,same,catch_shape_no_change1,1,none,6
shape6,no_change1,10,94,same,6,1661.7,control,same,shape6_no_change1,1,none,6
shape5,no_change3,10,95,same,7,1069.7,control,same,shape5_no_change3,1,none,6
shape1,convex_area1,10,96,different,9,1154.4,control,different,shape1_convex_area1,1,convex,6
shape8,concave_area1,10,97,different,6,1317.2,control,different,shape8_concave_area1,1,concave,6
shape2,concave_nofill_area2,10,98,different,9,1211.1,control,different,shape2_concave_nofill_area2,1,concave_nofill,6
shape7,concave_nofill_area2,11,99,different,9,908,control,different,shape7_concave_nofill_area2,1,concave_nofill,6
shape3,concave_area2,11,100,same,5,1482.6,control,different,shape3_concave_area2,0,concave,6
shape4,convex_area1,11,101,different,8,1323.8,control,different,shape4_convex_area1,1,convex,6
shape8,no_change3,11,102,same,3,1766,control,same,shape8_no_change3,1,none,6
shape6,concave_area2,11,103,different,9,978.5,control,different,shape6_concave_area2,1,concave,6
shape1,concave_area1,11,104,different,6,1248.7,control,different,shape1_concave_area1,1,concave,6
shape5,convex_area1,11,105,different,9,1054.4,control,different,shape5_convex_area1,1,convex,6
shape2,convex_area2,11,106,different,9,1138.5,control,different,shape2_convex_area2,1,convex,6
catch_shape,change4,11,107,different,9,1561.7,control,different,catch_shape_change4,1,none,6
catch_shape,no_change1,0,0,same,9,10506.3,control,same,catch_shape_no_change1,1,none,7
shape8,concave_nofill_area1,0,1,same,9,3793,control,different,shape8_concave_nofill_area1,0,concave_nofill,7
shape6,no_change3,0,2,same,9,4369.3,control,same,shape6_no_change3,1,none,7
shape3,convex_area2,0,3,same,9,1913.7,control,different,shape3_convex_area2,0,convex,7
shape7,concave_area1,0,4,same,9,1512.5,control,different,shape7_concave_area1,0,concave,7
shape5,no_change6,0,5,same,9,1575.3,control,same,shape5_no_change6,1,none,7
shape2,no_change3,0,6,same,9,1733.7,control,same,shape2_no_change3,1,none,7
shape4,no_change5,0,7,same,9,1769.1,control,same,shape4_no_change5,1,none,7
shape1,no_change1,0,8,same,9,1280.3,control,same,shape1_no_change1,1,none,7
shape2,no_change5,1,9,same,9,2355,control,same,shape2_no_change5,1,none,7
shape8,no_change4,1,10,same,9,1909.5,control,same,shape8_no_change4,1,none,7
shape1,no_change2,1,11,same,9,1643.9,control,same,shape1_no_change2,1,none,7
shape3,concave_nofill_area1,1,12,same,9,1196.6,control,different,shape3_concave_nofill_area1,0,concave_nofill,7
shape5,convex_area2,1,13,different,9,2378.1,control,different,shape5_convex_area2,1,convex,7
shape7,concave_area2,1,14,different,9,2024.7,control,different,shape7_concave_area2,1,concave,7
shape6,concave_area2,1,15,different,9,1978.2,control,different,shape6_concave_area2,1,concave,7
catch_shape,change2,1,16,different,9,1057.5,control,different,catch_shape_change2,1,none,7
shape4,concave_nofill_area1,1,17,different,9,371.3,control,different,shape4_concave_nofill_area1,1,concave_nofill,7
shape7,concave_nofill_area2,2,18,different,9,1105.8,control,different,shape7_concave_nofill_area2,1,concave_nofill,7
shape4,concave_nofill_area2,2,19,different,9,804.2,control,different,shape4_concave_nofill_area2,1,concave_nofill,7
catch_shape,change4,2,20,different,9,767.2,control,different,catch_shape_change4,1,none,7
shape3,no_change2,2,21,same,9,867.9,control,same,shape3_no_change2,1,none,7
shape6,no_change2,2,22,same,9,1188.2,control,same,shape6_no_change2,1,none,7
shape8,convex_area2,2,23,different,9,667.2,control,different,shape8_convex_area2,1,convex,7
shape5,convex_area1,2,24,different,9,830.5,control,different,shape5_convex_area1,1,convex,7
shape2,concave_area1,2,25,different,9,840.6,control,different,shape2_concave_area1,1,concave,7
shape1,no_change3,2,26,same,9,1238.3,control,same,shape1_no_change3,1,none,7
shape2,no_change2,3,27,different,9,1511.3,control,same,shape2_no_change2,0,none,7
shape8,no_change2,3,28,same,9,933.2,control,same,shape8_no_change2,1,none,7
shape5,concave_area1,3,29,different,9,628.2,control,different,shape5_concave_area1,1,concave,7
shape7,convex_area2,3,30,different,9,577.3,control,different,shape7_convex_area2,1,convex,7
shape4,no_change1,3,31,different,9,576.2,control,same,shape4_no_change1,0,none,7
catch_shape,change3,3,32,different,9,581.4,control,different,catch_shape_change3,1,none,7
shape3,concave_area2,3,33,same,9,2667,control,different,shape3_concave_area2,0,concave,7
shape6,no_change6,3,34,different,9,608.4,control,same,shape6_no_change6,0,none,7
shape1,no_change4,3,35,same,9,793.6,control,same,shape1_no_change4,1,none,7
shape6,no_change1,4,36,same,9,982.6,control,same,shape6_no_change1,1,none,7
shape4,no_change2,4,37,same,9,2604.1,control,same,shape4_no_change2,1,none,7
catch_shape,no_change6,4,38,same,9,866.7,control,same,catch_shape_no_change6,1,none,7
shape7,concave_nofill_area1,4,39,different,9,656.4,control,different,shape7_concave_nofill_area1,1,concave_nofill,7
shape8,convex_area1,4,40,different,9,590.3,control,different,shape8_convex_area1,1,convex,7
shape2,convex_area1,4,41,different,9,750.1,control,different,shape2_convex_area1,1,convex,7
shape1,no_change5,4,42,different,9,1023.1,control,same,shape1_no_change5,0,none,7
shape5,concave_area2,4,43,different,9,601.9,control,different,shape5_concave_area2,1,concave,7
shape3,no_change1,4,44,same,9,692,control,same,shape3_no_change1,1,none,7
shape1,convex_area2,5,45,different,9,514.1,control,different,shape1_convex_area2,1,convex,7
shape2,no_change6,5,46,different,9,456.4,control,same,shape2_no_change6,0,none,7
shape8,concave_area1,5,47,different,9,709.3,control,different,shape8_concave_area1,1,concave,7
shape3,concave_nofill_area2,5,48,different,9,709,control,different,shape3_concave_nofill_area2,1,concave_nofill,7
shape4,no_change6,5,49,same,9,1221.3,control,same,shape4_no_change6,1,none,7
shape5,no_change5,5,50,same,9,699.8,control,same,shape5_no_change5,1,none,7
shape6,concave_nofill_area2,5,51,different,9,741.1,control,different,shape6_concave_nofill_area2,1,concave_nofill,7
catch_shape,change5,5,52,different,9,1009.1,control,different,catch_shape_change5,1,none,7
shape7,no_change1,5,53,same,9,970,control,same,shape7_no_change1,1,none,7
shape7,no_change2,6,54,same,9,817.2,control,same,shape7_no_change2,1,none,7
shape3,no_change5,6,55,same,9,760.4,control,same,shape3_no_change5,1,none,7
shape1,no_change6,6,56,same,9,1876.9,control,same,shape1_no_change6,1,none,7
shape6,no_change5,6,57,same,9,737.6,control,same,shape6_no_change5,1,none,7
catch_shape,no_change5,6,58,same,9,3029.7,control,same,catch_shape_no_change5,1,none,7
shape5,no_change4,6,59,same,9,932.3,control,same,shape5_no_change4,1,none,7
shape2,convex_area2,6,60,different,9,706.4,control,different,shape2_convex_area2,1,convex,7
shape8,no_change3,6,61,same,9,952.6,control,same,shape8_no_change3,1,none,7
shape4,concave_area1,6,62,different,9,949.7,control,different,shape4_concave_area1,1,concave,7
shape3,no_change3,7,63,different,9,613.7,control,same,shape3_no_change3,0,none,7
shape2,concave_nofill_area2,7,64,different,9,609.6,control,different,shape2_concave_nofill_area2,1,concave_nofill,7
shape1,concave_area1,7,65,different,9,788.4,control,different,shape1_concave_area1,1,concave,7
shape6,convex_area2,7,66,different,9,988.7,control,different,shape6_convex_area2,1,convex,7
catch_shape,no_change2,7,67,same,9,986.3,control,same,catch_shape_no_change2,1,none,7
shape7,no_change6,7,68,same,9,925.4,control,same,shape7_no_change6,1,none,7
shape5,no_change3,7,69,same,9,1110.9,control,same,shape5_no_change3,1,none,7
shape8,no_change1,7,70,same,9,1071.9,control,same,shape8_no_change1,1,none,7
shape4,convex_area1,7,71,different,9,750.7,control,different,shape4_convex_area1,1,convex,7
shape2,concave_area2,8,72,different,9,726,control,different,shape2_concave_area2,1,concave,7
shape4,no_change4,8,73,different,9,758.3,control,same,shape4_no_change4,0,none,7
shape6,concave_nofill_area1,8,74,different,9,570.1,control,different,shape6_concave_nofill_area1,1,concave_nofill,7
shape5,no_change2,8,75,same,9,801.4,control,same,shape5_no_change2,1,none,7
shape7,no_change3,8,76,same,9,761.8,control,same,shape7_no_change3,1,none,7
shape1,concave_area2,8,77,different,9,610.3,control,different,shape1_concave_area2,1,concave,7
shape8,concave_nofill_area2,8,78,different,9,562.6,control,different,shape8_concave_nofill_area2,1,concave_nofill,7
shape3,convex_area1,8,79,different,9,500.6,control,different,shape3_convex_area1,1,convex,7
catch_shape,no_change3,8,80,same,9,849.4,control,same,catch_shape_no_change3,1,none,7
shape7,no_change4,9,81,same,9,395.9,control,same,shape7_no_change4,1,none,7
shape4,convex_area2,9,82,different,9,236.8,control,different,shape4_convex_area2,1,convex,7
shape8,concave_area2,9,83,different,9,2137.5,control,different,shape8_concave_area2,1,concave,7
shape3,concave_area1,9,84,different,9,535.3,control,different,shape3_concave_area1,1,concave,7
shape6,convex_area1,9,85,different,9,656.1,control,different,shape6_convex_area1,1,convex,7
shape5,no_change1,9,86,same,9,879.5,control,same,shape5_no_change1,1,none,7
shape2,concave_nofill_area1,9,87,different,9,1914.5,control,different,shape2_concave_nofill_area1,1,concave_nofill,7
catch_shape,no_change4,9,88,same,9,1105.2,control,same,catch_shape_no_change4,1,none,7
shape1,concave_nofill_area2,9,89,same,9,8476.9,control,different,shape1_concave_nofill_area2,0,concave_nofill,7
shape4,concave_area2,10,90,different,9,679.2,control,different,shape4_concave_area2,1,concave,7
catch_shape,change1,10,91,different,9,878.8,control,different,catch_shape_change1,1,none,7
shape3,no_change4,10,92,same,9,660.5,control,same,shape3_no_change4,1,none,7
shape5,concave_nofill_area2,10,93,different,9,538.2,control,different,shape5_concave_nofill_area2,1,concave_nofill,7
shape6,no_change4,10,94,same,9,442.8,control,same,shape6_no_change4,1,none,7
shape7,convex_area1,10,95,different,9,586.3,control,different,shape7_convex_area1,1,convex,7
shape2,no_change4,10,96,same,9,455.5,control,same,shape2_no_change4,1,none,7
shape1,concave_nofill_area1,10,97,same,9,2711.9,control,different,shape1_concave_nofill_area1,0,concave_nofill,7
shape8,no_change6,10,98,same,5,4522.2,control,same,shape8_no_change6,1,none,7
shape4,no_change3,11,99,same,9,1012.2,control,same,shape4_no_change3,1,none,7
shape2,no_change1,11,100,same,9,4816.9,control,same,shape2_no_change1,1,none,7
shape5,concave_nofill_area1,11,101,same,9,2233.5,control,different,shape5_concave_nofill_area1,0,concave_nofill,7
shape8,no_change5,11,102,same,9,3313.1,control,same,shape8_no_change5,1,none,7
catch_shape,change6,11,103,different,9,786.4,control,different,catch_shape_change6,1,none,7
shape1,convex_area1,11,104,same,9,907,control,different,shape1_convex_area1,0,convex,7
shape3,no_change6,11,105,same,9,1764.7,control,same,shape3_no_change6,1,none,7
shape7,no_change5,11,106,same,9,851.6,control,same,shape7_no_change5,1,none,7
shape6,concave_area1,11,107,same,9,887.5,control,different,shape6_concave_area1,0,concave,7
shape5,concave_area1,0,0,same,9,6994.5,control,different,shape5_concave_area1,0,concave,8
shape4,concave_area1,0,1,different,5,5835.1,control,different,shape4_concave_area1,1,concave,8
shape8,no_change2,0,2,different,2,8286.9,control,same,shape8_no_change2,0,none,8
shape3,no_change5,0,3,same,8,4484.3,control,same,shape3_no_change5,1,none,8
shape6,no_change3,0,4,same,8,2319.5,control,same,shape6_no_change3,1,none,8
catch_shape,no_change1,0,5,same,9,1793.4,control,same,catch_shape_no_change1,1,none,8
shape2,convex_area1,0,6,different,9,3010.2,control,different,shape2_convex_area1,1,convex,8
shape1,concave_area2,0,7,different,9,1483.6,control,different,shape1_concave_area2,1,concave,8
shape7,no_change2,0,8,same,9,2218,control,same,shape7_no_change2,1,none,8
shape4,no_change1,1,9,same,7,2472.3,control,same,shape4_no_change1,1,none,8
shape3,concave_area1,1,10,same,7,2182.4,control,different,shape3_concave_area1,0,concave,8
shape1,concave_nofill_area1,1,11,different,9,1589.4,control,different,shape1_concave_nofill_area1,1,concave_nofill,8
shape8,no_change1,1,12,same,8,1279,control,same,shape8_no_change1,1,none,8
shape7,convex_area2,1,13,different,9,1669.5,control,different,shape7_convex_area2,1,convex,8
shape6,concave_area1,1,14,different,9,1282,control,different,shape6_concave_area1,1,concave,8
shape5,no_change2,1,15,same,5,1886,control,same,shape5_no_change2,1,none,8
shape2,convex_area2,1,16,different,9,1321.5,control,different,shape2_convex_area2,1,convex,8
catch_shape,no_change3,1,17,same,9,2313.7,control,same,catch_shape_no_change3,1,none,8
shape5,no_change4,2,18,same,5,2686.2,control,same,shape5_no_change4,1,none,8
shape3,no_change6,2,19,same,2,4406.8,control,same,shape3_no_change6,1,none,8
shape2,concave_area2,2,20,different,9,1758,control,different,shape2_concave_area2,1,concave,8
shape8,convex_area2,2,21,different,9,1269,control,different,shape8_convex_area2,1,convex,8
catch_shape,no_change4,2,22,same,9,2610.4,control,same,catch_shape_no_change4,1,none,8
shape1,no_change6,2,23,same,6,3060.6,control,same,shape1_no_change6,1,none,8
shape7,no_change4,2,24,same,7,2917.4,control,same,shape7_no_change4,1,none,8
shape4,concave_nofill_area1,2,25,different,9,1298.7,control,different,shape4_concave_nofill_area1,1,concave_nofill,8
shape6,no_change2,2,26,different,7,1653.8,control,same,shape6_no_change2,0,none,8
shape1,no_change2,3,27,different,2,3515.8,control,same,shape1_no_change2,0,none,8
shape4,concave_nofill_area2,3,28,different,9,2795,control,different,shape4_concave_nofill_area2,1,concave_nofill,8
shape6,no_change5,3,29,same,9,1322.4,control,same,shape6_no_change5,1,none,8
shape8,convex_area1,3,30,different,9,1203.6,control,different,shape8_convex_area1,1,convex,8
catch_shape,change1,3,31,different,9,1940.5,control,different,catch_shape_change1,1,none,8
shape2,concave_nofill_area2,3,32,different,9,1550.5,control,different,shape2_concave_nofill_area2,1,concave_nofill,8
shape3,no_change4,3,33,same,8,2011.2,control,same,shape3_no_change4,1,none,8
shape7,no_change3,3,34,same,7,2145.1,control,same,shape7_no_change3,1,none,8
shape5,no_change6,3,35,same,7,2632.5,control,same,shape5_no_change6,1,none,8
shape1,convex_area1,4,36,different,9,1208.4,control,different,shape1_convex_area1,1,convex,8
shape4,no_change3,4,37,same,9,1667.9,control,same,shape4_no_change3,1,none,8
shape8,concave_area1,4,38,different,4,1830.2,control,different,shape8_concave_area1,1,concave,8
shape6,no_change1,4,39,same,8,1861.3,control,same,shape6_no_change1,1,none,8
shape5,convex_area1,4,40,different,9,1182.8,control,different,shape5_convex_area1,1,convex,8
shape3,no_change1,4,41,same,8,2156,control,same,shape3_no_change1,1,none,8
shape7,concave_area1,4,42,different,3,2308.9,control,different,shape7_concave_area1,1,concave,8
catch_shape,change4,4,43,different,9,1353.2,control,different,catch_shape_change4,1,none,8
shape2,no_change1,4,44,different,2,3242.5,control,same,shape2_no_change1,0,none,8
shape7,convex_area1,5,45,different,9,1456.7,control,different,shape7_convex_area1,1,convex,8
catch_shape,no_change2,5,46,same,9,4926.6,control,same,catch_shape_no_change2,1,none,8
shape1,no_change1,5,47,same,6,2776.6,control,same,shape1_no_change1,1,none,8
shape4,convex_area2,5,48,different,9,1048.9,control,different,shape4_convex_area2,1,convex,8
shape8,concave_nofill_area2,5,49,different,9,706.8,control,different,shape8_concave_nofill_area2,1,concave_nofill,8
shape2,no_change4,5,50,same,2,1916.4,control,same,shape2_no_change4,1,none,8
shape5,concave_nofill_area1,5,51,different,9,911.3,control,different,shape5_concave_nofill_area1,1,concave_nofill,8
shape3,concave_area2,5,52,same,4,1911.6,control,different,shape3_concave_area2,0,concave,8
shape6,no_change4,5,53,same,8,2681.3,control,same,shape6_no_change4,1,none,8
shape4,convex_area1,6,54,different,9,1243.4,control,different,shape4_convex_area1,1,convex,8
shape3,no_change3,6,55,same,8,2271.9,control,same,shape3_no_change3,1,none,8
shape6,concave_nofill_area2,6,56,different,9,1301.9,control,different,shape6_concave_nofill_area2,1,concave_nofill,8
shape5,no_change1,6,57,same,6,3102.9,control,same,shape5_no_change1,1,none,8
shape2,no_change6,6,58,same,8,1853.2,control,same,shape2_no_change6,1,none,8
shape7,concave_nofill_area2,6,59,different,9,917.2,control,different,shape7_concave_nofill_area2,1,concave_nofill,8
shape1,convex_area2,6,60,different,9,687.8,control,different,shape1_convex_area2,1,convex,8
catch_shape,no_change6,6,61,same,9,1434,control,same,catch_shape_no_change6,1,none,8
shape8,no_change5,6,62,same,5,2710.4,control,same,shape8_no_change5,1,none,8
shape8,concave_area2,7,63,different,9,1258.8,control,different,shape8_concave_area2,1,concave,8
shape2,no_change5,7,64,different,2,2760,control,same,shape2_no_change5,0,none,8
shape3,concave_nofill_area1,7,65,different,9,737,control,different,shape3_concave_nofill_area1,1,concave_nofill,8
shape6,no_change6,7,66,same,9,1701.4,control,same,shape6_no_change6,1,none,8
shape4,no_change5,7,67,same,9,4200,control,same,shape4_no_change5,1,none,8
shape1,no_change3,7,68,same,5,1923.9,control,same,shape1_no_change3,1,none,8
catch_shape,change3,7,69,different,9,1802.9,control,different,catch_shape_change3,1,none,8
shape5,no_change3,7,70,same,7,890.7,control,same,shape5_no_change3,1,none,8
shape7,concave_area2,7,71,same,9,1031.7,control,different,shape7_concave_area2,0,concave,8
shape1,no_change5,8,72,same,2,2559.3,control,same,shape1_no_change5,1,none,8
shape2,no_change2,8,73,different,2,1975.2,control,same,shape2_no_change2,0,none,8
shape3,convex_area2,8,74,different,9,2513.1,control,different,shape3_convex_area2,1,convex,8
catch_shape,change2,8,75,different,9,3075.7,control,different,catch_shape_change2,1,none,8
shape4,no_change2,8,76,different,2,2967.2,control,same,shape4_no_change2,0,none,8
shape7,no_change6,8,77,same,4,2426.8,control,same,shape7_no_change6,1,none,8
shape5,concave_area2,8,78,different,9,988.2,control,different,shape5_concave_area2,1,concave,8
shape6,concave_area2,8,79,different,9,782.1,control,different,shape6_concave_area2,1,concave,8
shape8,no_change6,8,80,same,8,1107.5,control,same,shape8_no_change6,1,none,8
shape5,convex_area2,9,81,different,9,671.1,control,different,shape5_convex_area2,1,convex,8
shape7,no_change5,9,82,same,7,1496.7,control,same,shape7_no_change5,1,none,8
shape8,concave_nofill_area1,9,83,different,9,671.8,control,different,shape8_concave_nofill_area1,1,concave_nofill,8
shape3,convex_area1,9,84,different,9,745.1,control,different,shape3_convex_area1,1,convex,8
shape6,convex_area1,9,85,different,9,696.6,control,different,shape6_convex_area1,1,convex,8
catch_shape,change6,9,86,different,9,929.2,control,different,catch_shape_change6,1,none,8
shape2,no_change3,9,87,same,5,2836.1,control,same,shape2_no_change3,1,none,8
shape4,no_change4,9,88,same,2,2903.8,control,same,shape4_no_change4,1,none,8
shape1,concave_area1,9,89,different,9,897.3,control,different,shape1_concave_area1,1,concave,8
shape4,concave_area2,10,90,different,9,561.8,control,different,shape4_concave_area2,1,concave,8
shape3,no_change2,10,91,same,2,1875.9,control,same,shape3_no_change2,1,none,8
shape7,no_change1,10,92,same,2,1353.1,control,same,shape7_no_change1,1,none,8
shape5,no_change5,10,93,same,4,2915,control,same,shape5_no_change5,1,none,8
shape6,concave_nofill_area1,10,94,different,9,878.4,control,different,shape6_concave_nofill_area1,1,concave_nofill,8
shape2,concave_area1,10,95,different,9,1552.7,control,different,shape2_concave_area1,1,concave,8
catch_shape,change5,10,96,different,9,2032.2,control,different,catch_shape_change5,1,none,8
shape8,no_change4,10,97,same,8,1157.3,control,same,shape8_no_change4,1,none,8
shape1,no_change4,10,98,same,4,4444.4,control,same,shape1_no_change4,1,none,8
shape4,no_change6,11,99,different,2,1363.9,control,same,shape4_no_change6,0,none,8
shape3,concave_nofill_area2,11,100,different,9,1613.9,control,different,shape3_concave_nofill_area2,1,concave_nofill,8
catch_shape,no_change5,11,101,same,9,1164.9,control,same,catch_shape_no_change5,1,none,8
shape8,no_change3,11,102,same,6,1806.5,control,same,shape8_no_change3,1,none,8
shape2,concave_nofill_area1,11,103,different,9,901.6,control,different,shape2_concave_nofill_area1,1,concave_nofill,8
shape7,concave_nofill_area1,11,104,different,9,742,control,different,shape7_concave_nofill_area1,1,concave_nofill,8
shape6,convex_area2,11,105,different,9,756,control,different,shape6_convex_area2,1,convex,8
shape5,concave_nofill_area2,11,106,different,9,654,control,different,shape5_concave_nofill_area2,1,concave_nofill,8
shape1,concave_nofill_area2,11,107,different,5,1600.4,control,different,shape1_concave_nofill_area2,1,concave_nofill,8
shape3,no_change2,0,0,different,5,5126.4,control,same,shape3_no_change2,0,none,9
shape2,concave_nofill_area2,0,1,different,9,1495.2,control,different,shape2_concave_nofill_area2,1,concave_nofill,9
shape8,no_change3,0,2,same,9,1047,control,same,shape8_no_change3,1,none,9
shape4,concave_area1,0,3,same,7,519.1,control,different,shape4_concave_area1,0,concave,9
catch_shape,no_change2,0,4,same,9,1519.1,control,same,catch_shape_no_change2,1,none,9
shape1,no_change4,0,5,different,8,1439,control,same,shape1_no_change4,0,none,9
shape5,convex_area2,0,6,different,7,1199,control,different,shape5_convex_area2,1,convex,9
shape6,no_change6,0,7,different,5,1231,control,same,shape6_no_change6,0,none,9
shape7,convex_area1,0,8,different,3,1239,control,different,shape7_convex_area1,1,convex,9
shape8,convex_area1,1,9,same,6,1470.9,control,different,shape8_convex_area1,0,convex,9
shape1,concave_area2,1,10,same,8,1606.5,control,different,shape1_concave_area2,0,concave,9
shape2,no_change2,1,11,same,5,1414.7,control,same,shape2_no_change2,1,none,9
shape3,concave_area1,1,12,same,7,1295,control,different,shape3_concave_area1,0,concave,9
shape4,concave_nofill_area2,1,13,same,5,1734.9,control,different,shape4_concave_nofill_area2,0,concave_nofill,9
catch_shape,change1,1,14,different,2,2983.1,control,different,catch_shape_change1,1,none,9
shape6,concave_area2,1,15,different,7,2446.9,control,different,shape6_concave_area2,1,concave,9
shape5,no_change4,1,16,same,5,2982.7,control,same,shape5_no_change4,1,none,9
shape7,concave_area2,1,17,same,6,2222.9,control,different,shape7_concave_area2,0,concave,9
shape7,concave_nofill_area2,2,18,different,4,2143,control,different,shape7_concave_nofill_area2,1,concave_nofill,9
shape2,no_change4,2,19,different,2,1902.8,control,same,shape2_no_change4,0,none,9
shape8,no_change1,2,20,same,7,1639.3,control,same,shape8_no_change1,1,none,9
shape1,concave_nofill_area2,2,21,same,5,2519.2,control,different,shape1_concave_nofill_area2,0,concave_nofill,9
shape6,convex_area2,2,22,different,8,1590.8,control,different,shape6_convex_area2,1,convex,9
shape5,no_change3,2,23,different,6,1047,control,same,shape5_no_change3,0,none,9
shape4,no_change2,2,24,different,5,903.1,control,same,shape4_no_change2,0,none,9
shape3,concave_nofill_area2,2,25,same,3,1086.8,control,different,shape3_concave_nofill_area2,0,concave_nofill,9
catch_shape,no_change1,2,26,same,9,1631,control,same,catch_shape_no_change1,1,none,9
shape3,convex_area2,3,27,different,5,2247.1,control,different,shape3_convex_area2,1,convex,9
shape1,concave_area1,3,28,same,4,2383.2,control,different,shape1_concave_area1,0,concave,9
catch_shape,change4,3,29,different,9,1374.7,control,different,catch_shape_change4,1,none,9
shape4,no_change1,3,30,different,5,1911,control,same,shape4_no_change1,0,none,9
shape2,convex_area2,3,31,different,6,2263.1,control,different,shape2_convex_area2,1,convex,9
shape8,concave_area1,3,32,same,5,1830.8,control,different,shape8_concave_area1,0,concave,9
shape6,no_change5,3,33,same,3,1838.9,control,same,shape6_no_change5,1,none,9
shape5,no_change6,3,34,same,9,991,control,same,shape5_no_change6,1,none,9
shape7,no_change4,3,35,same,6,2927,control,same,shape7_no_change4,1,none,9
shape2,no_change5,4,36,same,9,2182.9,control,same,shape2_no_change5,1,none,9
shape3,no_change3,4,37,same,8,1758.8,control,same,shape3_no_change3,1,none,9
shape6,concave_nofill_area1,4,38,same,5,1775.1,control,different,shape6_concave_nofill_area1,0,concave_nofill,9
shape8,concave_nofill_area1,4,39,same,3,2655,control,different,shape8_concave_nofill_area1,0,concave_nofill,9
shape4,convex_area2,4,40,different,8,1718.7,control,different,shape4_convex_area2,1,convex,9
shape7,no_change3,4,41,same,5,1895.1,control,same,shape7_no_change3,1,none,9
catch_shape,no_change5,4,42,same,9,1159.2,control,same,catch_shape_no_change5,1,none,9
shape1,no_change5,4,43,same,6,1943.1,control,same,shape1_no_change5,1,none,9
shape5,convex_area1,4,44,different,4,4607.1,control,different,shape5_convex_area1,1,convex,9
shape7,no_change6,5,45,same,9,1102.9,control,same,shape7_no_change6,1,none,9
shape3,convex_area1,5,46,same,6,895,control,different,shape3_convex_area1,0,convex,9
shape2,concave_nofill_area1,5,47,different,9,1038.9,control,different,shape2_concave_nofill_area1,1,concave_nofill,9
shape5,no_change5,5,48,same,5,1815.1,control,same,shape5_no_change5,1,none,9
shape1,no_change1,5,49,same,7,2143,control,same,shape1_no_change1,1,none,9
shape4,no_change3,5,50,same,8,1783.1,control,same,shape4_no_change3,1,none,9
catch_shape,change6,5,51,different,9,1319.3,control,different,catch_shape_change6,1,none,9
shape6,convex_area1,5,52,different,9,1255,control,different,shape6_convex_area1,1,convex,9
shape8,no_change6,5,53,same,4,1294.9,control,same,shape8_no_change6,1,none,9
shape5,concave_nofill_area1,6,54,same,8,2679,control,different,shape5_concave_nofill_area1,0,concave_nofill,9
shape3,no_change5,6,55,different,7,919,control,same,shape3_no_change5,0,none,9
catch_shape,change5,6,56,different,9,1183.1,control,different,catch_shape_change5,1,none,9
shape7,concave_area1,6,57,same,7,3663.1,control,different,shape7_concave_area1,0,concave,9
shape6,concave_nofill_area2,6,58,same,7,3374.7,control,different,shape6_concave_nofill_area2,0,concave_nofill,9
shape4,convex_area1,6,59,same,5,1879,control,different,shape4_convex_area1,0,convex,9
shape2,no_change1,6,60,same,8,1863,control,same,shape2_no_change1,1,none,9
shape8,no_change5,6,61,same,6,1303,control,same,shape8_no_change5,1,none,9
shape1,convex_area1,6,62,different,3,1871.1,control,different,shape1_convex_area1,1,convex,9
shape8,no_change2,7,63,different,4,2439.1,control,same,shape8_no_change2,0,none,9
shape1,concave_nofill_area1,7,64,different,5,19494.2,control,different,shape1_concave_nofill_area1,1,concave_nofill,9
shape6,no_change4,7,65,same,3,2231,control,same,shape6_no_change4,1,none,9
shape4,concave_area2,7,66,same,7,1471,control,different,shape4_concave_area2,0,concave,9
shape7,no_change5,7,67,same,5,1495,control,same,shape7_no_change5,1,none,9
shape5,no_change2,7,68,same,9,1375.1,control,same,shape5_no_change2,1,none,9
shape2,concave_area1,7,69,same,9,2239.2,control,different,shape2_concave_area1,0,concave,9
catch_shape,change2,7,70,same,5,1543,control,different,catch_shape_change2,0,none,9
shape3,concave_area2,7,71,same,9,990.8,control,different,shape3_concave_area2,0,concave,9
shape4,no_change4,8,72,same,9,1294.9,control,same,shape4_no_change4,1,none,9
shape1,no_change2,8,73,same,8,1015.1,control,same,shape1_no_change2,1,none,9
shape2,no_change3,8,74,different,1,606.9,control,same,shape2_no_change3,0,none,9
shape8,concave_area2,8,75,different,9,823.1,control,different,shape8_concave_area2,1,concave,9
catch_shape,no_change3,8,76,same,9,1047.2,control,same,catch_shape_no_change3,1,none,9
shape6,no_change3,8,77,different,9,719,control,same,shape6_no_change3,0,none,9
shape3,no_change1,8,78,different,5,3279.1,control,same,shape3_no_change1,0,none,9
shape7,no_change2,8,79,same,7,2327,control,same,shape7_no_change2,1,none,9
shape5,concave_nofill_area2,8,80,different,7,1278.7,control,different,shape5_concave_nofill_area2,1,concave_nofill,9
shape4,no_change5,9,81,same,4,1303.1,control,same,shape4_no_change5,1,none,9
shape6,no_change2,9,82,same,7,1919,control,same,shape6_no_change2,1,none,9
shape1,no_change3,9,83,same,8,2279,control,same,shape1_no_change3,1,none,9
shape5,concave_area1,9,84,different,7,614.9,control,different,shape5_concave_area1,1,concave,9
shape2,no_change6,9,85,same,4,1439.2,control,same,shape2_no_change6,1,none,9
catch_shape,no_change4,9,86,same,7,1879,control,same,catch_shape_no_change4,1,none,9
shape7,no_change1,9,87,same,7,1255.1,control,same,shape7_no_change1,1,none,9
shape3,no_change4,9,88,same,7,3567.1,control,same,shape3_no_change4,1,none,9
shape8,concave_nofill_area2,9,89,different,3,1270.9,control,different,shape8_concave_nofill_area2,1,concave_nofill,9
shape1,convex_area2,10,90,different,8,3487,control,different,shape1_convex_area2,1,convex,9
shape5,concave_area2,10,91,different,4,799,control,different,shape5_concave_area2,1,concave,9
shape8,convex_area2,10,92,same,3,1559,control,different,shape8_convex_area2,0,convex,9
shape6,no_change1,10,93,different,6,1887,control,same,shape6_no_change1,0,none,9
catch_shape,change3,10,94,same,1,4983.1,control,different,catch_shape_change3,0,none,9
shape2,convex_area1,10,95,different,5,1735,control,different,shape2_convex_area1,1,convex,9
shape3,no_change6,10,96,different,8,510.7,control,same,shape3_no_change6,0,none,9
shape4,concave_nofill_area1,10,97,same,5,647,control,different,shape4_concave_nofill_area1,0,concave_nofill,9
shape7,concave_nofill_area1,10,98,different,3,1335,control,different,shape7_concave_nofill_area1,1,concave_nofill,9
shape3,concave_nofill_area1,11,99,different,5,447.1,control,different,shape3_concave_nofill_area1,1,concave_nofill,9
shape8,no_change4,11,100,different,2,447.2,control,same,shape8_no_change4,0,none,9
shape2,concave_area2,11,101,different,8,422,control,different,shape2_concave_area2,1,concave,9
shape5,no_change1,11,102,same,9,943.2,control,same,shape5_no_change1,1,none,9
shape4,no_change6,11,103,same,7,1023,control,same,shape4_no_change6,1,none,9
shape1,no_change6,11,104,different,8,454.9,control,same,shape1_no_change6,0,none,9
shape6,concave_area1,11,105,different,6,4150.9,control,different,shape6_concave_area1,1,concave,9
catch_shape,no_change6,11,106,same,8,2103,control,same,catch_shape_no_change6,1,none,9
shape7,convex_area2,11,107,different,5,959.1,control,different,shape7_convex_area2,1,convex,9
shape8,no_change4,0,0,same,9,16357,control,same,shape8_no_change4,1,none,10
shape2,concave_area1,0,1,same,8,2891,control,different,shape2_concave_area1,0,concave,10
shape5,concave_nofill_area1,0,2,different,9,1568,control,different,shape5_concave_nofill_area1,1,concave_nofill,10
shape6,concave_area2,0,3,same,5,2645,control,different,shape6_concave_area2,0,concave,10
shape4,no_change3,0,4,different,7,2768,control,same,shape4_no_change3,0,none,10
shape3,no_change3,0,5,same,7,3344,control,same,shape3_no_change3,1,none,10
shape1,no_change3,0,6,same,7,1746,control,same,shape1_no_change3,1,none,10
catch_shape,no_change2,0,7,same,7,4303,control,same,catch_shape_no_change2,1,none,10
shape7,no_change4,0,8,same,6,4146,control,same,shape7_no_change4,1,none,10
shape8,convex_area1,1,9,different,9,4254,control,different,shape8_convex_area1,1,convex,10
shape1,concave_nofill_area1,1,10,different,8,2989,control,different,shape1_concave_nofill_area1,1,concave_nofill,10
shape2,no_change6,1,11,different,8,1799,control,same,shape2_no_change6,0,none,10
catch_shape,change2,1,12,different,9,2005,control,different,catch_shape_change2,1,none,10
shape4,no_change4,1,13,different,9,5073,control,same,shape4_no_change4,0,none,10
shape7,no_change1,1,14,same,8,3223,control,same,shape7_no_change1,1,none,10
shape3,convex_area1,1,15,same,7,4207,control,different,shape3_convex_area1,0,convex,10
shape5,no_change6,1,16,same,7,4953,control,same,shape5_no_change6,1,none,10
shape6,no_change4,1,17,same,9,1684,control,same,shape6_no_change4,1,none,10
shape3,convex_area2,2,18,different,9,1497,control,different,shape3_convex_area2,1,convex,10
shape4,concave_nofill_area1,2,19,different,9,5189,control,different,shape4_concave_nofill_area1,1,concave_nofill,10
shape2,concave_nofill_area2,2,20,different,9,1957,control,different,shape2_concave_nofill_area2,1,concave_nofill,10
catch_shape,change6,2,21,different,9,1110,control,different,catch_shape_change6,1,none,10
shape8,no_change1,2,22,same,5,2564,control,same,shape8_no_change1,1,none,10
shape5,concave_area2,2,23,different,9,1453,control,different,shape5_concave_area2,1,concave,10
shape1,no_change2,2,24,same,9,2031,control,same,shape1_no_change2,1,none,10
shape6,concave_nofill_area2,2,25,different,9,1568,control,different,shape6_concave_nofill_area2,1,concave_nofill,10
shape7,no_change2,2,26,same,9,2328,control,same,shape7_no_change2,1,none,10
shape1,no_change6,3,27,same,7,4931,control,same,shape1_no_change6,1,none,10
shape2,convex_area2,3,28,different,9,1008,control,different,shape2_convex_area2,1,convex,10
catch_shape,change3,3,29,different,9,1659,control,different,catch_shape_change3,1,none,10
shape8,convex_area2,3,30,different,9,1488,control,different,shape8_convex_area2,1,convex,10
shape6,concave_nofill_area1,3,31,different,9,3571,control,different,shape6_concave_nofill_area1,1,concave_nofill,10
shape3,no_change1,3,32,same,9,3710,control,same,shape3_no_change1,1,none,10
shape4,concave_area2,3,33,different,9,1668,control,different,shape4_concave_area2,1,concave,10
shape5,concave_nofill_area2,3,34,different,9,1409,control,different,shape5_concave_nofill_area2,1,concave_nofill,10
shape7,concave_area2,3,35,different,9,1662,control,different,shape7_concave_area2,1,concave,10
shape4,concave_nofill_area2,4,36,different,9,3260,control,different,shape4_concave_nofill_area2,1,concave_nofill,10
shape2,no_change3,4,37,same,5,4718,control,same,shape2_no_change3,1,none,10
shape5,no_change5,4,38,same,5,3490,control,same,shape5_no_change5,1,none,10
shape3,no_change6,4,39,same,9,2947,control,same,shape3_no_change6,1,none,10
catch_shape,change1,4,40,different,9,1954,control,different,catch_shape_change1,1,none,10
shape1,concave_nofill_area2,4,41,same,9,1903,control,different,shape1_concave_nofill_area2,0,concave_nofill,10
shape7,convex_area1,4,42,different,5,5438,control,different,shape7_convex_area1,1,convex,10
shape8,concave_nofill_area1,4,43,different,9,4792,control,different,shape8_concave_nofill_area1,1,concave_nofill,10
shape6,no_change3,4,44,different,9,2760,control,same,shape6_no_change3,0,none,10
shape4,convex_area1,5,45,different,6,2119,control,different,shape4_convex_area1,1,convex,10
catch_shape,no_change3,5,46,same,9,1640,control,same,catch_shape_no_change3,1,none,10
shape3,concave_nofill_area2,5,47,different,9,3135,control,different,shape3_concave_nofill_area2,1,concave_nofill,10
shape5,no_change2,5,48,different,9,4223,control,same,shape5_no_change2,0,none,10
shape8,no_change3,5,49,different,9,3837,control,same,shape8_no_change3,0,none,10
shape2,concave_area2,5,50,different,9,2469,control,different,shape2_concave_area2,1,concave,10
shape6,no_change2,5,51,different,9,2782,control,same,shape6_no_change2,0,none,10
shape1,no_change1,5,52,same,9,2387,control,same,shape1_no_change1,1,none,10
shape7,no_change6,5,53,same,5,9620,control,same,shape7_no_change6,1,none,10
shape4,no_change1,6,54,same,8,2131,control,same,shape4_no_change1,1,none,10
shape1,convex_area1,6,55,same,8,2596,control,different,shape1_convex_area1,0,convex,10
shape5,no_change1,6,56,different,9,3572,control,same,shape5_no_change1,0,none,10
catch_shape,no_change5,6,57,same,9,2915,control,same,catch_shape_no_change5,1,none,10
shape3,concave_area2,6,58,different,6,2486,control,different,shape3_concave_area2,1,concave,10
shape6,no_change6,6,59,different,9,1705,control,same,shape6_no_change6,0,none,10
shape8,no_change2,6,60,same,9,816,control,same,shape8_no_change2,1,none,10
shape2,concave_nofill_area1,6,61,different,9,580,control,different,shape2_concave_nofill_area1,1,concave_nofill,10
shape7,no_change5,6,62,same,9,719,control,same,shape7_no_change5,1,none,10
shape4,concave_area1,7,63,different,9,836,control,different,shape4_concave_area1,1,concave,10
shape3,no_change2,7,64,same,9,847,control,same,shape3_no_change2,1,none,10
shape2,no_change4,7,65,different,9,722,control,same,shape2_no_change4,0,none,10
shape5,no_change4,7,66,same,9,760,control,same,shape5_no_change4,1,none,10
catch_shape,no_change4,7,67,same,9,581,control,same,catch_shape_no_change4,1,none,10
shape1,concave_area2,7,68,different,9,868,control,different,shape1_concave_area2,1,concave,10
shape6,concave_area1,7,69,different,9,678,control,different,shape6_concave_area1,1,concave,10
shape7,concave_area1,7,70,different,9,830,control,different,shape7_concave_area1,1,concave,10
shape8,no_change6,7,71,same,9,548,control,same,shape8_no_change6,1,none,10
shape4,no_change5,8,72,same,5,2008,control,same,shape4_no_change5,1,none,10
shape1,convex_area2,8,73,different,9,958,control,different,shape1_convex_area2,1,convex,10
shape7,no_change3,8,74,same,9,612,control,same,shape7_no_change3,1,none,10
shape2,no_change5,8,75,same,9,629,control,same,shape2_no_change5,1,none,10
shape8,concave_nofill_area2,8,76,different,9,969,control,different,shape8_concave_nofill_area2,1,concave_nofill,10
shape3,concave_area1,8,77,different,9,629,control,different,shape3_concave_area1,1,concave,10
shape5,no_change3,8,78,different,9,515,control,same,shape5_no_change3,0,none,10
shape6,no_change1,8,79,same,9,633,control,same,shape6_no_change1,1,none,10
catch_shape,change4,8,80,different,9,1040,control,different,catch_shape_change4,1,none,10
shape4,no_change6,9,81,same,9,666,control,same,shape4_no_change6,1,none,10
shape8,concave_area1,9,82,different,9,919,control,different,shape8_concave_area1,1,concave,10
shape6,convex_area2,9,83,different,9,596,control,different,shape6_convex_area2,1,convex,10
shape1,no_change5,9,84,same,9,703,control,same,shape1_no_change5,1,none,10
shape5,concave_area1,9,85,different,9,691,control,different,shape5_concave_area1,1,concave,10
shape2,no_change2,9,86,different,9,746,control,same,shape2_no_change2,0,none,10
shape3,no_change4,9,87,same,9,633,control,same,shape3_no_change4,1,none,10
shape7,concave_nofill_area2,9,88,different,9,868,control,different,shape7_concave_nofill_area2,1,concave_nofill,10
catch_shape,change5,9,89,different,9,966,control,different,catch_shape_change5,1,none,10
shape4,no_change2,10,90,same,9,847,control,same,shape4_no_change2,1,none,10
shape6,convex_area1,10,91,different,9,631,control,different,shape6_convex_area1,1,convex,10
shape8,no_change5,10,92,same,9,435,control,same,shape8_no_change5,1,none,10
shape7,convex_area2,10,93,same,5,1618,control,different,shape7_convex_area2,0,convex,10
shape1,no_change4,10,94,same,9,477,control,same,shape1_no_change4,1,none,10
shape5,convex_area1,10,95,different,9,613,control,different,shape5_convex_area1,1,convex,10
catch_shape,no_change6,10,96,same,9,717,control,same,catch_shape_no_change6,1,none,10
shape2,convex_area1,10,97,different,9,1106,control,different,shape2_convex_area1,1,convex,10
shape3,concave_nofill_area1,10,98,different,9,715,control,different,shape3_concave_nofill_area1,1,concave_nofill,10
shape4,convex_area2,11,99,different,9,881,control,different,shape4_convex_area2,1,convex,10
shape6,no_change5,11,100,same,5,692,control,same,shape6_no_change5,1,none,10
shape2,no_change1,11,101,same,5,798,control,same,shape2_no_change1,1,none,10
catch_shape,no_change1,11,102,same,9,584,control,same,catch_shape_no_change1,1,none,10
shape1,concave_area1,11,103,same,9,853,control,different,shape1_concave_area1,0,concave,10
shape8,concave_area2,11,104,different,9,886,control,different,shape8_concave_area2,1,concave,10
shape5,convex_area2,11,105,different,9,660,control,different,shape5_convex_area2,1,convex,10
shape7,concave_nofill_area1,11,106,different,9,1466,control,different,shape7_concave_nofill_area1,1,concave_nofill,10
shape3,no_change5,11,107,same,6,3370,control,same,shape3_no_change5,1,none,10
shape6,no_change1,0,0,same,9,4873,control,same,shape6_no_change1,1,none,11
catch_shape,no_change2,0,1,same,9,2432,control,same,catch_shape_no_change2,1,none,11
shape5,concave_nofill_area1,0,2,different,9,2500,control,different,shape5_concave_nofill_area1,1,concave_nofill,11
shape7,concave_nofill_area1,0,3,different,9,1814,control,different,shape7_concave_nofill_area1,1,concave_nofill,11
shape8,concave_area1,0,4,same,9,2364,control,different,shape8_concave_area1,0,concave,11
shape1,concave_nofill_area2,0,5,same,8,3805,control,different,shape1_concave_nofill_area2,0,concave_nofill,11
shape2,convex_area1,0,6,different,9,1453,control,different,shape2_convex_area1,1,convex,11
shape4,no_change2,0,7,different,7,6741,control,same,shape4_no_change2,0,none,11
shape3,concave_nofill_area1,0,8,different,9,1298,control,different,shape3_concave_nofill_area1,1,concave_nofill,11
shape5,concave_nofill_area2,1,9,different,9,1634,control,different,shape5_concave_nofill_area2,1,concave_nofill,11
catch_shape,change3,1,10,different,9,2556,control,different,catch_shape_change3,1,none,11
shape8,concave_nofill_area1,1,11,different,9,1217,control,different,shape8_concave_nofill_area1,1,concave_nofill,11
shape7,convex_area1,1,12,different,9,2275,control,different,shape7_convex_area1,1,convex,11
shape6,no_change6,1,13,same,9,1769,control,same,shape6_no_change6,1,none,11
shape4,no_change3,1,14,same,9,913,control,same,shape4_no_change3,1,none,11
shape1,no_change5,1,15,same,9,1116,control,same,shape1_no_change5,1,none,11
shape3,convex_area1,1,16,different,7,2421,control,different,shape3_convex_area1,1,convex,11
shape2,concave_nofill_area2,1,17,different,9,1218,control,different,shape2_concave_nofill_area2,1,concave_nofill,11
catch_shape,change6,2,18,different,9,2365,control,different,catch_shape_change6,1,none,11
shape5,concave_area2,2,19,same,7,3006,control,different,shape5_concave_area2,0,concave,11
shape3,no_change3,2,20,same,7,2073,control,same,shape3_no_change3,1,none,11
shape7,concave_nofill_area2,2,21,different,9,1117,control,different,shape7_concave_nofill_area2,1,concave_nofill,11
shape8,no_change4,2,22,same,9,1871,control,same,shape8_no_change4,1,none,11
shape6,concave_nofill_area2,2,23,different,9,1332,control,different,shape6_concave_nofill_area2,1,concave_nofill,11
shape4,no_change1,2,24,same,9,1049,control,same,shape4_no_change1,1,none,11
shape1,no_change4,2,25,same,9,1510,control,same,shape1_no_change4,1,none,11
shape2,no_change3,2,26,same,9,902,control,same,shape2_no_change3,1,none,11
